space_bar.keys,space_bar.rt,participant,session,date,expName,psychopyVersion,OS,frameRate,PROLIFIC_PID,STUDY_ID,SESSION_ID,resp.keys,state,q_prob,eps_prob,score,price,resp.rt,train.thisRepN,train.thisTrialN,train.thisN,train.thisIndex,train.ran,steps.thisRepN,steps.thisTrialN,steps.thisN,steps.thisIndex,steps.ran,blocks.thisRepN,blocks.thisTrialN,blocks.thisN,blocks.thisIndex,blocks.ran
space,18.693,711326,001,2023-07-31_20h43.41.359,arm3_eps,2022.2.5,Win32,29.9940012,60d4613121b754739be92895,64c7fed44a04f777bb1e18ce,64c800bdd4a56374c6c7ef36,,,,,,,,,,,,,,,,,,,,,,
space,4.908,711326,001,2023-07-31_20h43.41.359,arm3_eps,2022.2.5,Win32,29.9940012,60d4613121b754739be92895,64c7fed44a04f777bb1e18ce,64c800bdd4a56374c6c7ef36,,,,,,,,,,,,,,,,,,,,,,
space,30.957,711326,001,2023-07-31_20h43.41.359,arm3_eps,2022.2.5,Win32,29.9940012,60d4613121b754739be92895,64c7fed44a04f777bb1e18ce,64c800bdd4a56374c6c7ef36,,,,,,,,,,,,,,,,,,,,,,
space,10.202,711326,001,2023-07-31_20h43.41.359,arm3_eps,2022.2.5,Win32,29.9940012,60d4613121b754739be92895,64c7fed44a04f777bb1e18ce,64c800bdd4a56374c6c7ef36,,,,,,,,,,,,,,,,,,,,,,
space,18.568,711326,001,2023-07-31_20h43.41.359,arm3_eps,2022.2.5,Win32,29.9940012,60d4613121b754739be92895,64c7fed44a04f777bb1e18ce,64c800bdd4a56374c6c7ef36,,,,,,,,,,,,,,,,,,,,,,
space,9.049,711326,001,2023-07-31_20h43.41.359,arm3_eps,2022.2.5,Win32,29.9940012,60d4613121b754739be92895,64c7fed44a04f777bb1e18ce,64c800bdd4a56374c6c7ef36,,,,,,,,,,,,,,,,,,,,,,
space,2.304,711326,001,2023-07-31_20h43.41.359,arm3_eps,2022.2.5,Win32,29.9940012,60d4613121b754739be92895,64c7fed44a04f777bb1e18ce,64c800bdd4a56374c6c7ef36,,,,,,,,,,,,,,,,,,,,,,
,,711326,001,2023-07-31_20h43.41.359,arm3_eps,2022.2.5,Win32,29.9940012,60d4613121b754739be92895,64c7fed44a04f777bb1e18ce,64c800bdd4a56374c6c7ef36,down,-1,1,0.2429,1,0,14.375,0,0,0,0,1,,,,,,,,,,
,,711326,001,2023-07-31_20h43.41.359,arm3_eps,2022.2.5,Win32,29.9940012,60d4613121b754739be92895,64c7fed44a04f777bb1e18ce,64c800bdd4a56374c6c7ef36,up,-1,1,0.2429,0,0,1.718,1,0,1,0,1,,,,,,,,,,
,,711326,001,2023-07-31_20h43.41.359,arm3_eps,2022.2.5,Win32,29.9940012,60d4613121b754739be92895,64c7fed44a04f777bb1e18ce,64c800bdd4a56374c6c7ef36,right,-1,1,0.2429,0,0.024853482,2.05,2,0,2,0,1,,,,,,,,,,
,,711326,001,2023-07-31_20h43.41.359,arm3_eps,2022.2.5,Win32,29.9940012,60d4613121b754739be92895,64c7fed44a04f777bb1e18ce,64c800bdd4a56374c6c7ef36,right,-1,1,0.2429,0,0.041464251,1.136,3,0,3,0,1,,,,,,,,,,
,,711326,001,2023-07-31_20h43.41.359,arm3_eps,2022.2.5,Win32,29.9940012,60d4613121b754739be92895,64c7fed44a04f777bb1e18ce,64c800bdd4a56374c6c7ef36,down,1,1,0.2429,1,0,1.172,4,0,4,0,1,,,,,,,,,,
,,711326,001,2023-07-31_20h43.41.359,arm3_eps,2022.2.5,Win32,29.9940012,60d4613121b754739be92895,64c7fed44a04f777bb1e18ce,64c800bdd4a56374c6c7ef36,up,1,1,0.2429,2,0,1.75,5,0,5,0,1,,,,,,,,,,
,,711326,001,2023-07-31_20h43.41.359,arm3_eps,2022.2.5,Win32,29.9940012,60d4613121b754739be92895,64c7fed44a04f777bb1e18ce,64c800bdd4a56374c6c7ef36,up,1,1,0.2429,3,0,2.318,6,0,6,0,1,,,,,,,,,,
,,711326,001,2023-07-31_20h43.41.359,arm3_eps,2022.2.5,Win32,29.9940012,60d4613121b754739be92895,64c7fed44a04f777bb1e18ce,64c800bdd4a56374c6c7ef36,right,1,1,0.2429,3,0.000216534,1.502,7,0,7,0,1,,,,,,,,,,
,,711326,001,2023-07-31_20h43.41.359,arm3_eps,2022.2.5,Win32,29.9940012,60d4613121b754739be92895,64c7fed44a04f777bb1e18ce,64c800bdd4a56374c6c7ef36,right,1,1,0.2429,3,0.000840241,0.584,8,0,8,0,1,,,,,,,,,,
,,711326,001,2023-07-31_20h43.41.359,arm3_eps,2022.2.5,Win32,29.9940012,60d4613121b754739be92895,64c7fed44a04f777bb1e18ce,64c800bdd4a56374c6c7ef36,right,1,1,0.2429,3,0.001418136,0.618,9,0,9,0,1,,,,,,,,,,
,,711326,001,2023-07-31_20h43.41.359,arm3_eps,2022.2.5,Win32,29.9940012,60d4613121b754739be92895,64c7fed44a04f777bb1e18ce,64c800bdd4a56374c6c7ef36,up,-1,1,0.2429,4,0,0.887,10,0,10,0,1,,,,,,,,,,
,,711326,001,2023-07-31_20h43.41.359,arm3_eps,2022.2.5,Win32,29.9940012,60d4613121b754739be92895,64c7fed44a04f777bb1e18ce,64c800bdd4a56374c6c7ef36,up,-1,1,0.2429,3,0,1.991,11,0,11,0,1,,,,,,,,,,
,,711326,001,2023-07-31_20h43.41.359,arm3_eps,2022.2.5,Win32,29.9940012,60d4613121b754739be92895,64c7fed44a04f777bb1e18ce,64c800bdd4a56374c6c7ef36,down,-1,1,0.2429,4,0,1.519,12,0,12,0,1,,,,,,,,,,
,,711326,001,2023-07-31_20h43.41.359,arm3_eps,2022.2.5,Win32,29.9940012,60d4613121b754739be92895,64c7fed44a04f777bb1e18ce,64c800bdd4a56374c6c7ef36,right,-1,1,0.2429,4,0.003317733,1.206,13,0,13,0,1,,,,,,,,,,
,,711326,001,2023-07-31_20h43.41.359,arm3_eps,2022.2.5,Win32,29.9940012,60d4613121b754739be92895,64c7fed44a04f777bb1e18ce,64c800bdd4a56374c6c7ef36,down,-1,1,0.2429,5,0,0.736,14,0,14,0,1,,,,,,,,,,
,,711326,001,2023-07-31_20h43.41.359,arm3_eps,2022.2.5,Win32,29.9940012,60d4613121b754739be92895,64c7fed44a04f777bb1e18ce,64c800bdd4a56374c6c7ef36,down,-1,1,0.2429,6,0,1.536,15,0,15,0,1,,,,,,,,,,
,,711326,001,2023-07-31_20h43.41.359,arm3_eps,2022.2.5,Win32,29.9940012,60d4613121b754739be92895,64c7fed44a04f777bb1e18ce,64c800bdd4a56374c6c7ef36,down,-1,1,0.2429,7,0,1.105,16,0,16,0,1,,,,,,,,,,
,,711326,001,2023-07-31_20h43.41.359,arm3_eps,2022.2.5,Win32,29.9940012,60d4613121b754739be92895,64c7fed44a04f777bb1e18ce,64c800bdd4a56374c6c7ef36,up,-1,1,0.2429,6,0,1.089,17,0,17,0,1,,,,,,,,,,
,,711326,001,2023-07-31_20h43.41.359,arm3_eps,2022.2.5,Win32,29.9940012,60d4613121b754739be92895,64c7fed44a04f777bb1e18ce,64c800bdd4a56374c6c7ef36,right,-1,1,0.2429,6,0.003562919,1.266,18,0,18,0,1,,,,,,,,,,
,,711326,001,2023-07-31_20h43.41.359,arm3_eps,2022.2.5,Win32,29.9940012,60d4613121b754739be92895,64c7fed44a04f777bb1e18ce,64c800bdd4a56374c6c7ef36,down,-1,1,0.2429,7,0,0.718,19,0,19,0,1,,,,,,,,,,
,,711326,001,2023-07-31_20h43.41.359,arm3_eps,2022.2.5,Win32,29.9940012,60d4613121b754739be92895,64c7fed44a04f777bb1e18ce,64c800bdd4a56374c6c7ef36,down,1,1,0.2429,8,0,1.653,20,0,20,0,1,,,,,,,,,,
,,711326,001,2023-07-31_20h43.41.359,arm3_eps,2022.2.5,Win32,29.9940012,60d4613121b754739be92895,64c7fed44a04f777bb1e18ce,64c800bdd4a56374c6c7ef36,down,-1,1,0.2429,7,0,1.304,21,0,21,0,1,,,,,,,,,,
,,711326,001,2023-07-31_20h43.41.359,arm3_eps,2022.2.5,Win32,29.9940012,60d4613121b754739be92895,64c7fed44a04f777bb1e18ce,64c800bdd4a56374c6c7ef36,up,-1,1,0.2429,6,0,3.405,22,0,22,0,1,,,,,,,,,,
,,711326,001,2023-07-31_20h43.41.359,arm3_eps,2022.2.5,Win32,29.9940012,60d4613121b754739be92895,64c7fed44a04f777bb1e18ce,64c800bdd4a56374c6c7ef36,up,1,1,0.2429,5,0,1.49,23,0,23,0,1,,,,,,,,,,
,,711326,001,2023-07-31_20h43.41.359,arm3_eps,2022.2.5,Win32,29.9940012,60d4613121b754739be92895,64c7fed44a04f777bb1e18ce,64c800bdd4a56374c6c7ef36,right,1,1,0.2429,5,0.001060759,1.291,24,0,24,0,1,,,,,,,,,,
,,711326,001,2023-07-31_20h43.41.359,arm3_eps,2022.2.5,Win32,29.9940012,60d4613121b754739be92895,64c7fed44a04f777bb1e18ce,64c800bdd4a56374c6c7ef36,right,1,1,0.2429,5,-0.022932792,2.023,25,0,25,0,1,,,,,,,,,,
,,711326,001,2023-07-31_20h43.41.359,arm3_eps,2022.2.5,Win32,29.9940012,60d4613121b754739be92895,64c7fed44a04f777bb1e18ce,64c800bdd4a56374c6c7ef36,right,1,1,0.2429,5,-0.040451806,0.93,26,0,26,0,1,,,,,,,,,,
,,711326,001,2023-07-31_20h43.41.359,arm3_eps,2022.2.5,Win32,29.9940012,60d4613121b754739be92895,64c7fed44a04f777bb1e18ce,64c800bdd4a56374c6c7ef36,right,1,1,0.2429,5,-0.049643321,0.585,27,0,27,0,1,,,,,,,,,,
,,711326,001,2023-07-31_20h43.41.359,arm3_eps,2022.2.5,Win32,29.9940012,60d4613121b754739be92895,64c7fed44a04f777bb1e18ce,64c800bdd4a56374c6c7ef36,up,-1,1,0.2429,6,0,0.918,28,0,28,0,1,,,,,,,,,,
,,711326,001,2023-07-31_20h43.41.359,arm3_eps,2022.2.5,Win32,29.9940012,60d4613121b754739be92895,64c7fed44a04f777bb1e18ce,64c800bdd4a56374c6c7ef36,right,-1,1,0.2429,6,-0.001474192,1.757,29,0,29,0,1,,,,,,,,,,
,,711326,001,2023-07-31_20h43.41.359,arm3_eps,2022.2.5,Win32,29.9940012,60d4613121b754739be92895,64c7fed44a04f777bb1e18ce,64c800bdd4a56374c6c7ef36,down,-1,1,0.2429,7,0,2.301,30,0,30,0,1,,,,,,,,,,
,,711326,001,2023-07-31_20h43.41.359,arm3_eps,2022.2.5,Win32,29.9940012,60d4613121b754739be92895,64c7fed44a04f777bb1e18ce,64c800bdd4a56374c6c7ef36,down,1,1,0.2429,8,0,1.274,31,0,31,0,1,,,,,,,,,,
,,711326,001,2023-07-31_20h43.41.359,arm3_eps,2022.2.5,Win32,29.9940012,60d4613121b754739be92895,64c7fed44a04f777bb1e18ce,64c800bdd4a56374c6c7ef36,up,1,1,0.2429,9,0,1.853,32,0,32,0,1,,,,,,,,,,
,,711326,001,2023-07-31_20h43.41.359,arm3_eps,2022.2.5,Win32,29.9940012,60d4613121b754739be92895,64c7fed44a04f777bb1e18ce,64c800bdd4a56374c6c7ef36,up,1,1,0.2429,10,0,1.115,33,0,33,0,1,,,,,,,,,,
,,711326,001,2023-07-31_20h43.41.359,arm3_eps,2022.2.5,Win32,29.9940012,60d4613121b754739be92895,64c7fed44a04f777bb1e18ce,64c800bdd4a56374c6c7ef36,up,1,1,0.2429,11,0,0.934,34,0,34,0,1,,,,,,,,,,
,,711326,001,2023-07-31_20h43.41.359,arm3_eps,2022.2.5,Win32,29.9940012,60d4613121b754739be92895,64c7fed44a04f777bb1e18ce,64c800bdd4a56374c6c7ef36,up,-1,1,0.2429,12,0,1.024,35,0,35,0,1,,,,,,,,,,
,,711326,001,2023-07-31_20h43.41.359,arm3_eps,2022.2.5,Win32,29.9940012,60d4613121b754739be92895,64c7fed44a04f777bb1e18ce,64c800bdd4a56374c6c7ef36,up,-1,1,0.2429,11,0,1.21,36,0,36,0,1,,,,,,,,,,
,,711326,001,2023-07-31_20h43.41.359,arm3_eps,2022.2.5,Win32,29.9940012,60d4613121b754739be92895,64c7fed44a04f777bb1e18ce,64c800bdd4a56374c6c7ef36,right,-1,1,0.2429,11,0.020232517,1.169,37,0,37,0,1,,,,,,,,,,
,,711326,001,2023-07-31_20h43.41.359,arm3_eps,2022.2.5,Win32,29.9940012,60d4613121b754739be92895,64c7fed44a04f777bb1e18ce,64c800bdd4a56374c6c7ef36,right,-1,1,0.2429,11,0.009808885,1.333,38,0,38,0,1,,,,,,,,,,
,,711326,001,2023-07-31_20h43.41.359,arm3_eps,2022.2.5,Win32,29.9940012,60d4613121b754739be92895,64c7fed44a04f777bb1e18ce,64c800bdd4a56374c6c7ef36,right,-1,1,0.2429,11,0.002261415,0.918,39,0,39,0,1,,,,,,,,,,
,,711326,001,2023-07-31_20h43.41.359,arm3_eps,2022.2.5,Win32,29.9940012,60d4613121b754739be92895,64c7fed44a04f777bb1e18ce,64c800bdd4a56374c6c7ef36,right,-1,1,0.2429,11,-0.009884575,0.925,40,0,40,0,1,,,,,,,,,,
,,711326,001,2023-07-31_20h43.41.359,arm3_eps,2022.2.5,Win32,29.9940012,60d4613121b754739be92895,64c7fed44a04f777bb1e18ce,64c800bdd4a56374c6c7ef36,right,-1,1,0.2429,11,-0.032646674,0.784,41,0,41,0,1,,,,,,,,,,
,,711326,001,2023-07-31_20h43.41.359,arm3_eps,2022.2.5,Win32,29.9940012,60d4613121b754739be92895,64c7fed44a04f777bb1e18ce,64c800bdd4a56374c6c7ef36,right,-1,1,0.2429,11,-0.05974834,0.7,42,0,42,0,1,,,,,,,,,,
,,711326,001,2023-07-31_20h43.41.359,arm3_eps,2022.2.5,Win32,29.9940012,60d4613121b754739be92895,64c7fed44a04f777bb1e18ce,64c800bdd4a56374c6c7ef36,right,-1,1,0.2429,11,-0.073491317,0.435,43,0,43,0,1,,,,,,,,,,
,,711326,001,2023-07-31_20h43.41.359,arm3_eps,2022.2.5,Win32,29.9940012,60d4613121b754739be92895,64c7fed44a04f777bb1e18ce,64c800bdd4a56374c6c7ef36,right,-1,1,0.2429,11,-0.096792236,0.335,44,0,44,0,1,,,,,,,,,,
,,711326,001,2023-07-31_20h43.41.359,arm3_eps,2022.2.5,Win32,29.9940012,60d4613121b754739be92895,64c7fed44a04f777bb1e18ce,64c800bdd4a56374c6c7ef36,right,-1,1,0.2429,11,-0.089335506,0.584,45,0,45,0,1,,,,,,,,,,
,,711326,001,2023-07-31_20h43.41.359,arm3_eps,2022.2.5,Win32,29.9940012,60d4613121b754739be92895,64c7fed44a04f777bb1e18ce,64c800bdd4a56374c6c7ef36,right,-1,1,0.2429,11,-0.135011676,0.935,46,0,46,0,1,,,,,,,,,,
,,711326,001,2023-07-31_20h43.41.359,arm3_eps,2022.2.5,Win32,29.9940012,60d4613121b754739be92895,64c7fed44a04f777bb1e18ce,64c800bdd4a56374c6c7ef36,right,-1,1,0.2429,11,-0.111670487,0.585,47,0,47,0,1,,,,,,,,,,
,,711326,001,2023-07-31_20h43.41.359,arm3_eps,2022.2.5,Win32,29.9940012,60d4613121b754739be92895,64c7fed44a04f777bb1e18ce,64c800bdd4a56374c6c7ef36,right,-1,1,0.2429,11,-0.138140588,0.369,48,0,48,0,1,,,,,,,,,,
,,711326,001,2023-07-31_20h43.41.359,arm3_eps,2022.2.5,Win32,29.9940012,60d4613121b754739be92895,64c7fed44a04f777bb1e18ce,64c800bdd4a56374c6c7ef36,up,-1,1,0.2429,11,-0.138140588,3.719,49,0,49,0,1,,,,,,,,,,
space,20.866,711326,001,2023-07-31_20h43.41.359,arm3_eps,2022.2.5,Win32,29.9940012,60d4613121b754739be92895,64c7fed44a04f777bb1e18ce,64c800bdd4a56374c6c7ef36,,,,,,,,,,,,,,,,,,,,,,
space,8.445,711326,001,2023-07-31_20h43.41.359,arm3_eps,2022.2.5,Win32,29.9940012,60d4613121b754739be92895,64c7fed44a04f777bb1e18ce,64c800bdd4a56374c6c7ef36,,,,,,,,,,,,,,,,,,,,,,
space,8.006,711326,001,2023-07-31_20h43.41.359,arm3_eps,2022.2.5,Win32,29.9940012,60d4613121b754739be92895,64c7fed44a04f777bb1e18ce,64c800bdd4a56374c6c7ef36,,,,,,,,,,,,,,,,,,,,,,
space,7.142,711326,001,2023-07-31_20h43.41.359,arm3_eps,2022.2.5,Win32,29.9940012,60d4613121b754739be92895,64c7fed44a04f777bb1e18ce,64c800bdd4a56374c6c7ef36,,,,,,,,,,,,,,,,,,,,,,
space,5.524,711326,001,2023-07-31_20h43.41.359,arm3_eps,2022.2.5,Win32,29.9940012,60d4613121b754739be92895,64c7fed44a04f777bb1e18ce,64c800bdd4a56374c6c7ef36,,,,,,,,,,,,,,,,,,,,,,
space,1.149,711326,001,2023-07-31_20h43.41.359,arm3_eps,2022.2.5,Win32,29.9940012,60d4613121b754739be92895,64c7fed44a04f777bb1e18ce,64c800bdd4a56374c6c7ef36,,,,,,,,,,,,,,,,,,,,,,
,,711326,001,2023-07-31_20h43.41.359,arm3_eps,2022.2.5,Win32,29.9940012,60d4613121b754739be92895,64c7fed44a04f777bb1e18ce,64c800bdd4a56374c6c7ef36,right,-1,0.75,0.2429,0,0.016244324,1.068,0,0,0,0,1,,,,,,,,,,
,,711326,001,2023-07-31_20h43.41.359,arm3_eps,2022.2.5,Win32,29.9940012,60d4613121b754739be92895,64c7fed44a04f777bb1e18ce,64c800bdd4a56374c6c7ef36,right,-1,0.75,0.2429,0,0.011777778,0.73,1,0,1,0,1,,,,,,,,,,
,,711326,001,2023-07-31_20h43.41.359,arm3_eps,2022.2.5,Win32,29.9940012,60d4613121b754739be92895,64c7fed44a04f777bb1e18ce,64c800bdd4a56374c6c7ef36,right,-1,0.75,0.2429,0,0.022363162,0.699,2,0,2,0,1,,,,,,,,,,
,,711326,001,2023-07-31_20h43.41.359,arm3_eps,2022.2.5,Win32,29.9940012,60d4613121b754739be92895,64c7fed44a04f777bb1e18ce,64c800bdd4a56374c6c7ef36,right,-1,0.75,0.2429,0,-0.010748289,0.499,3,0,3,0,1,,,,,,,,,,
,,711326,001,2023-07-31_20h43.41.359,arm3_eps,2022.2.5,Win32,29.9940012,60d4613121b754739be92895,64c7fed44a04f777bb1e18ce,64c800bdd4a56374c6c7ef36,right,-1,0.75,0.2429,0,-0.051555171,0.966,4,0,4,0,1,,,,,,,,,,
,,711326,001,2023-07-31_20h43.41.359,arm3_eps,2022.2.5,Win32,29.9940012,60d4613121b754739be92895,64c7fed44a04f777bb1e18ce,64c800bdd4a56374c6c7ef36,right,-1,0.75,0.2429,0,-0.04012748,0.549,5,0,5,0,1,,,,,,,,,,
,,711326,001,2023-07-31_20h43.41.359,arm3_eps,2022.2.5,Win32,29.9940012,60d4613121b754739be92895,64c7fed44a04f777bb1e18ce,64c800bdd4a56374c6c7ef36,right,-1,0.75,0.2429,0,-0.027990871,1.363,6,0,6,0,1,,,,,,,,,,
,,711326,001,2023-07-31_20h43.41.359,arm3_eps,2022.2.5,Win32,29.9940012,60d4613121b754739be92895,64c7fed44a04f777bb1e18ce,64c800bdd4a56374c6c7ef36,right,-1,0.75,0.2429,0,-0.043390239,0.549,7,0,7,0,1,,,,,,,,,,
,,711326,001,2023-07-31_20h43.41.359,arm3_eps,2022.2.5,Win32,29.9940012,60d4613121b754739be92895,64c7fed44a04f777bb1e18ce,64c800bdd4a56374c6c7ef36,up,1,0.75,0.2429,-1,0,0.55,8,0,8,0,1,,,,,,,,,,
,,711326,001,2023-07-31_20h43.41.359,arm3_eps,2022.2.5,Win32,29.9940012,60d4613121b754739be92895,64c7fed44a04f777bb1e18ce,64c800bdd4a56374c6c7ef36,right,1,0.75,0.2429,-1,-0.004415155,1.184,9,0,9,0,1,,,,,,,,,,
,,711326,001,2023-07-31_20h43.41.359,arm3_eps,2022.2.5,Win32,29.9940012,60d4613121b754739be92895,64c7fed44a04f777bb1e18ce,64c800bdd4a56374c6c7ef36,up,1,0.75,0.2429,0,0,0.798,10,0,10,0,1,,,,,,,,,,
,,711326,001,2023-07-31_20h43.41.359,arm3_eps,2022.2.5,Win32,29.9940012,60d4613121b754739be92895,64c7fed44a04f777bb1e18ce,64c800bdd4a56374c6c7ef36,right,1,0.75,0.2429,0,0.013096856,1.967,11,0,11,0,1,,,,,,,,,,
,,711326,001,2023-07-31_20h43.41.359,arm3_eps,2022.2.5,Win32,29.9940012,60d4613121b754739be92895,64c7fed44a04f777bb1e18ce,64c800bdd4a56374c6c7ef36,right,1,0.75,0.2429,0,0.001090071,0.433,12,0,12,0,1,,,,,,,,,,
,,711326,001,2023-07-31_20h43.41.359,arm3_eps,2022.2.5,Win32,29.9940012,60d4613121b754739be92895,64c7fed44a04f777bb1e18ce,64c800bdd4a56374c6c7ef36,right,1,0.75,0.2429,0,0.014591571,0.24,13,0,13,0,1,,,,,,,,,,
,,711326,001,2023-07-31_20h43.41.359,arm3_eps,2022.2.5,Win32,29.9940012,60d4613121b754739be92895,64c7fed44a04f777bb1e18ce,64c800bdd4a56374c6c7ef36,right,1,0.75,0.2429,0,0.020134948,0.223,14,0,14,0,1,,,,,,,,,,
,,711326,001,2023-07-31_20h43.41.359,arm3_eps,2022.2.5,Win32,29.9940012,60d4613121b754739be92895,64c7fed44a04f777bb1e18ce,64c800bdd4a56374c6c7ef36,right,1,0.75,0.2429,0,0.0453291,0.259,15,0,15,0,1,,,,,,,,,,
,,711326,001,2023-07-31_20h43.41.359,arm3_eps,2022.2.5,Win32,29.9940012,60d4613121b754739be92895,64c7fed44a04f777bb1e18ce,64c800bdd4a56374c6c7ef36,right,1,0.75,0.2429,0,0.06515479,0.495,16,0,16,0,1,,,,,,,,,,
,,711326,001,2023-07-31_20h43.41.359,arm3_eps,2022.2.5,Win32,29.9940012,60d4613121b754739be92895,64c7fed44a04f777bb1e18ce,64c800bdd4a56374c6c7ef36,right,1,0.75,0.2429,0,0.053969226,0.431,17,0,17,0,1,,,,,,,,,,
,,711326,001,2023-07-31_20h43.41.359,arm3_eps,2022.2.5,Win32,29.9940012,60d4613121b754739be92895,64c7fed44a04f777bb1e18ce,64c800bdd4a56374c6c7ef36,right,1,0.75,0.2429,0,0.065076921,0.495,18,0,18,0,1,,,,,,,,,,
,,711326,001,2023-07-31_20h43.41.359,arm3_eps,2022.2.5,Win32,29.9940012,60d4613121b754739be92895,64c7fed44a04f777bb1e18ce,64c800bdd4a56374c6c7ef36,right,1,0.75,0.2429,0,0.086390516,0.433,19,0,19,0,1,,,,,,,,,,
,,711326,001,2023-07-31_20h43.41.359,arm3_eps,2022.2.5,Win32,29.9940012,60d4613121b754739be92895,64c7fed44a04f777bb1e18ce,64c800bdd4a56374c6c7ef36,right,1,0.75,0.2429,0,0.078028728,0.281,20,0,20,0,1,,,,,,,,,,
,,711326,001,2023-07-31_20h43.41.359,arm3_eps,2022.2.5,Win32,29.9940012,60d4613121b754739be92895,64c7fed44a04f777bb1e18ce,64c800bdd4a56374c6c7ef36,right,1,0.75,0.2429,0,0.066693224,0.264,21,0,21,0,1,,,,,,,,,,
,,711326,001,2023-07-31_20h43.41.359,arm3_eps,2022.2.5,Win32,29.9940012,60d4613121b754739be92895,64c7fed44a04f777bb1e18ce,64c800bdd4a56374c6c7ef36,right,1,0.75,0.2429,0,0.059048346,0.217,22,0,22,0,1,,,,,,,,,,
,,711326,001,2023-07-31_20h43.41.359,arm3_eps,2022.2.5,Win32,29.9940012,60d4613121b754739be92895,64c7fed44a04f777bb1e18ce,64c800bdd4a56374c6c7ef36,up,1,0.75,0.2429,1,0,2.296,23,0,23,0,1,,,,,,,,,,
,,711326,001,2023-07-31_20h43.41.359,arm3_eps,2022.2.5,Win32,29.9940012,60d4613121b754739be92895,64c7fed44a04f777bb1e18ce,64c800bdd4a56374c6c7ef36,right,1,0.75,0.2429,1,0.015045653,1.267,24,0,24,0,1,,,,,,,,,,
,,711326,001,2023-07-31_20h43.41.359,arm3_eps,2022.2.5,Win32,29.9940012,60d4613121b754739be92895,64c7fed44a04f777bb1e18ce,64c800bdd4a56374c6c7ef36,right,1,0.75,0.2429,1,0.028666559,0.233,25,0,25,0,1,,,,,,,,,,
,,711326,001,2023-07-31_20h43.41.359,arm3_eps,2022.2.5,Win32,29.9940012,60d4613121b754739be92895,64c7fed44a04f777bb1e18ce,64c800bdd4a56374c6c7ef36,right,1,0.75,0.2429,1,0.037339874,0.167,26,0,26,0,1,,,,,,,,,,
,,711326,001,2023-07-31_20h43.41.359,arm3_eps,2022.2.5,Win32,29.9940012,60d4613121b754739be92895,64c7fed44a04f777bb1e18ce,64c800bdd4a56374c6c7ef36,right,1,0.75,0.2429,1,0.052218455,0.166,27,0,27,0,1,,,,,,,,,,
,,711326,001,2023-07-31_20h43.41.359,arm3_eps,2022.2.5,Win32,29.9940012,60d4613121b754739be92895,64c7fed44a04f777bb1e18ce,64c800bdd4a56374c6c7ef36,right,1,0.75,0.2429,1,0.044089749,0.166,28,0,28,0,1,,,,,,,,,,
,,711326,001,2023-07-31_20h43.41.359,arm3_eps,2022.2.5,Win32,29.9940012,60d4613121b754739be92895,64c7fed44a04f777bb1e18ce,64c800bdd4a56374c6c7ef36,right,1,0.75,0.2429,1,0.07488504,0.182,29,0,29,0,1,,,,,,,,,,
,,711326,001,2023-07-31_20h43.41.359,arm3_eps,2022.2.5,Win32,29.9940012,60d4613121b754739be92895,64c7fed44a04f777bb1e18ce,64c800bdd4a56374c6c7ef36,right,1,0.75,0.2429,1,0.103195741,0.151,30,0,30,0,1,,,,,,,,,,
,,711326,001,2023-07-31_20h43.41.359,arm3_eps,2022.2.5,Win32,29.9940012,60d4613121b754739be92895,64c7fed44a04f777bb1e18ce,64c800bdd4a56374c6c7ef36,right,1,0.75,0.2429,1,0.12758226,0.18,31,0,31,0,1,,,,,,,,,,
,,711326,001,2023-07-31_20h43.41.359,arm3_eps,2022.2.5,Win32,29.9940012,60d4613121b754739be92895,64c7fed44a04f777bb1e18ce,64c800bdd4a56374c6c7ef36,right,1,0.75,0.2429,1,0.142094133,0.182,32,0,32,0,1,,,,,,,,,,
,,711326,001,2023-07-31_20h43.41.359,arm3_eps,2022.2.5,Win32,29.9940012,60d4613121b754739be92895,64c7fed44a04f777bb1e18ce,64c800bdd4a56374c6c7ef36,right,1,0.75,0.2429,1,0.175100413,0.186,33,0,33,0,1,,,,,,,,,,
,,711326,001,2023-07-31_20h43.41.359,arm3_eps,2022.2.5,Win32,29.9940012,60d4613121b754739be92895,64c7fed44a04f777bb1e18ce,64c800bdd4a56374c6c7ef36,right,1,0.75,0.2429,1,0.195983004,0.215,34,0,34,0,1,,,,,,,,,,
,,711326,001,2023-07-31_20h43.41.359,arm3_eps,2022.2.5,Win32,29.9940012,60d4613121b754739be92895,64c7fed44a04f777bb1e18ce,64c800bdd4a56374c6c7ef36,right,1,0.75,0.2429,1,0.189214762,0.183,35,0,35,0,1,,,,,,,,,,
,,711326,001,2023-07-31_20h43.41.359,arm3_eps,2022.2.5,Win32,29.9940012,60d4613121b754739be92895,64c7fed44a04f777bb1e18ce,64c800bdd4a56374c6c7ef36,up,1,0.75,0.2429,2,0,1.031,36,0,36,0,1,,,,,,,,,,
,,711326,001,2023-07-31_20h43.41.359,arm3_eps,2022.2.5,Win32,29.9940012,60d4613121b754739be92895,64c7fed44a04f777bb1e18ce,64c800bdd4a56374c6c7ef36,right,1,0.75,0.2429,2,0.038979156,0.922,37,0,37,0,1,,,,,,,,,,
,,711326,001,2023-07-31_20h43.41.359,arm3_eps,2022.2.5,Win32,29.9940012,60d4613121b754739be92895,64c7fed44a04f777bb1e18ce,64c800bdd4a56374c6c7ef36,right,1,0.75,0.2429,2,0.049848212,0.182,38,0,38,0,1,,,,,,,,,,
,,711326,001,2023-07-31_20h43.41.359,arm3_eps,2022.2.5,Win32,29.9940012,60d4613121b754739be92895,64c7fed44a04f777bb1e18ce,64c800bdd4a56374c6c7ef36,right,1,0.75,0.2429,2,0.055844677,0.169,39,0,39,0,1,,,,,,,,,,
,,711326,001,2023-07-31_20h43.41.359,arm3_eps,2022.2.5,Win32,29.9940012,60d4613121b754739be92895,64c7fed44a04f777bb1e18ce,64c800bdd4a56374c6c7ef36,right,1,0.75,0.2429,2,0.051113057,0.169,40,0,40,0,1,,,,,,,,,,
,,711326,001,2023-07-31_20h43.41.359,arm3_eps,2022.2.5,Win32,29.9940012,60d4613121b754739be92895,64c7fed44a04f777bb1e18ce,64c800bdd4a56374c6c7ef36,right,1,0.75,0.2429,2,0.037302594,0.182,41,0,41,0,1,,,,,,,,,,
,,711326,001,2023-07-31_20h43.41.359,arm3_eps,2022.2.5,Win32,29.9940012,60d4613121b754739be92895,64c7fed44a04f777bb1e18ce,64c800bdd4a56374c6c7ef36,right,1,0.75,0.2429,2,0.019311008,0.168,42,0,42,0,1,,,,,,,,,,
,,711326,001,2023-07-31_20h43.41.359,arm3_eps,2022.2.5,Win32,29.9940012,60d4613121b754739be92895,64c7fed44a04f777bb1e18ce,64c800bdd4a56374c6c7ef36,right,1,0.75,0.2429,2,0.034019285,0.176,43,0,43,0,1,,,,,,,,,,
,,711326,001,2023-07-31_20h43.41.359,arm3_eps,2022.2.5,Win32,29.9940012,60d4613121b754739be92895,64c7fed44a04f777bb1e18ce,64c800bdd4a56374c6c7ef36,right,1,0.75,0.2429,2,0.014001974,0.197,44,0,44,0,1,,,,,,,,,,
,,711326,001,2023-07-31_20h43.41.359,arm3_eps,2022.2.5,Win32,29.9940012,60d4613121b754739be92895,64c7fed44a04f777bb1e18ce,64c800bdd4a56374c6c7ef36,right,1,0.75,0.2429,2,0.00038746,0.197,45,0,45,0,1,,,,,,,,,,
,,711326,001,2023-07-31_20h43.41.359,arm3_eps,2022.2.5,Win32,29.9940012,60d4613121b754739be92895,64c7fed44a04f777bb1e18ce,64c800bdd4a56374c6c7ef36,right,1,0.75,0.2429,2,0.01433561,0.333,46,0,46,0,1,,,,,,,,,,
,,711326,001,2023-07-31_20h43.41.359,arm3_eps,2022.2.5,Win32,29.9940012,60d4613121b754739be92895,64c7fed44a04f777bb1e18ce,64c800bdd4a56374c6c7ef36,right,1,0.75,0.2429,2,0.034662133,0.366,47,0,47,0,1,,,,,,,,,,
,,711326,001,2023-07-31_20h43.41.359,arm3_eps,2022.2.5,Win32,29.9940012,60d4613121b754739be92895,64c7fed44a04f777bb1e18ce,64c800bdd4a56374c6c7ef36,right,1,0.75,0.2429,2,0.046903899,0.282,48,0,48,0,1,,,,,,,,,,
,,711326,001,2023-07-31_20h43.41.359,arm3_eps,2022.2.5,Win32,29.9940012,60d4613121b754739be92895,64c7fed44a04f777bb1e18ce,64c800bdd4a56374c6c7ef36,up,1,0.75,0.2429,2,0.046903899,1.582,49,0,49,0,1,,,,,,,,,,
space,11.424,711326,001,2023-07-31_20h43.41.359,arm3_eps,2022.2.5,Win32,29.9940012,60d4613121b754739be92895,64c7fed44a04f777bb1e18ce,64c800bdd4a56374c6c7ef36,,,,,,,,,,,,,,,,,,,,,,
space,5.261,711326,001,2023-07-31_20h43.41.359,arm3_eps,2022.2.5,Win32,29.9940012,60d4613121b754739be92895,64c7fed44a04f777bb1e18ce,64c800bdd4a56374c6c7ef36,,,,,,,,,,,,,,,,,,,,,,
space,0.771,711326,001,2023-07-31_20h43.41.359,arm3_eps,2022.2.5,Win32,29.9940012,60d4613121b754739be92895,64c7fed44a04f777bb1e18ce,64c800bdd4a56374c6c7ef36,,,,,,,,,,,,,,,,,,,,,,
,,711326,001,2023-07-31_20h43.41.359,arm3_eps,2022.2.5,Win32,29.9940012,60d4613121b754739be92895,64c7fed44a04f777bb1e18ce,64c800bdd4a56374c6c7ef36,up,1,0.75,0.05,1,0,0.748,0,0,0,0,1,,,,,,,,,,
,,711326,001,2023-07-31_20h43.41.359,arm3_eps,2022.2.5,Win32,29.9940012,60d4613121b754739be92895,64c7fed44a04f777bb1e18ce,64c800bdd4a56374c6c7ef36,right,1,0.75,0.05,1,-0.003758635,0.966,1,0,1,0,1,,,,,,,,,,
,,711326,001,2023-07-31_20h43.41.359,arm3_eps,2022.2.5,Win32,29.9940012,60d4613121b754739be92895,64c7fed44a04f777bb1e18ce,64c800bdd4a56374c6c7ef36,right,1,0.75,0.05,1,-0.014337262,0.366,2,0,2,0,1,,,,,,,,,,
,,711326,001,2023-07-31_20h43.41.359,arm3_eps,2022.2.5,Win32,29.9940012,60d4613121b754739be92895,64c7fed44a04f777bb1e18ce,64c800bdd4a56374c6c7ef36,right,1,0.75,0.05,1,-0.028380377,0.216,3,0,3,0,1,,,,,,,,,,
,,711326,001,2023-07-31_20h43.41.359,arm3_eps,2022.2.5,Win32,29.9940012,60d4613121b754739be92895,64c7fed44a04f777bb1e18ce,64c800bdd4a56374c6c7ef36,right,1,0.75,0.05,1,-0.036211495,0.18,4,0,4,0,1,,,,,,,,,,
,,711326,001,2023-07-31_20h43.41.359,arm3_eps,2022.2.5,Win32,29.9940012,60d4613121b754739be92895,64c7fed44a04f777bb1e18ce,64c800bdd4a56374c6c7ef36,right,1,0.75,0.05,1,-0.025722115,0.202,5,0,5,0,1,,,,,,,,,,
,,711326,001,2023-07-31_20h43.41.359,arm3_eps,2022.2.5,Win32,29.9940012,60d4613121b754739be92895,64c7fed44a04f777bb1e18ce,64c800bdd4a56374c6c7ef36,right,1,0.75,0.05,1,-0.032277967,0.315,6,0,6,0,1,,,,,,,,,,
,,711326,001,2023-07-31_20h43.41.359,arm3_eps,2022.2.5,Win32,29.9940012,60d4613121b754739be92895,64c7fed44a04f777bb1e18ce,64c800bdd4a56374c6c7ef36,right,1,0.75,0.05,1,0.006513404,0.249,7,0,7,0,1,,,,,,,,,,
,,711326,001,2023-07-31_20h43.41.359,arm3_eps,2022.2.5,Win32,29.9940012,60d4613121b754739be92895,64c7fed44a04f777bb1e18ce,64c800bdd4a56374c6c7ef36,right,1,0.75,0.05,1,-0.000763894,1.081,8,0,8,0,1,,,,,,,,,,
,,711326,001,2023-07-31_20h43.41.359,arm3_eps,2022.2.5,Win32,29.9940012,60d4613121b754739be92895,64c7fed44a04f777bb1e18ce,64c800bdd4a56374c6c7ef36,right,1,0.75,0.05,1,-0.002463245,0.298,9,0,9,0,1,,,,,,,,,,
,,711326,001,2023-07-31_20h43.41.359,arm3_eps,2022.2.5,Win32,29.9940012,60d4613121b754739be92895,64c7fed44a04f777bb1e18ce,64c800bdd4a56374c6c7ef36,right,1,0.75,0.05,1,-0.009906322,0.2,10,0,10,0,1,,,,,,,,,,
,,711326,001,2023-07-31_20h43.41.359,arm3_eps,2022.2.5,Win32,29.9940012,60d4613121b754739be92895,64c7fed44a04f777bb1e18ce,64c800bdd4a56374c6c7ef36,right,1,0.75,0.05,1,0.016273076,0.199,11,0,11,0,1,,,,,,,,,,
,,711326,001,2023-07-31_20h43.41.359,arm3_eps,2022.2.5,Win32,29.9940012,60d4613121b754739be92895,64c7fed44a04f777bb1e18ce,64c800bdd4a56374c6c7ef36,right,1,0.75,0.05,1,0.025747203,0.35,12,0,12,0,1,,,,,,,,,,
,,711326,001,2023-07-31_20h43.41.359,arm3_eps,2022.2.5,Win32,29.9940012,60d4613121b754739be92895,64c7fed44a04f777bb1e18ce,64c800bdd4a56374c6c7ef36,up,1,0.75,0.05,2,0,1.15,13,0,13,0,1,,,,,,,,,,
,,711326,001,2023-07-31_20h43.41.359,arm3_eps,2022.2.5,Win32,29.9940012,60d4613121b754739be92895,64c7fed44a04f777bb1e18ce,64c800bdd4a56374c6c7ef36,right,1,0.75,0.05,2,-0.005669421,0.954,14,0,14,0,1,,,,,,,,,,
,,711326,001,2023-07-31_20h43.41.359,arm3_eps,2022.2.5,Win32,29.9940012,60d4613121b754739be92895,64c7fed44a04f777bb1e18ce,64c800bdd4a56374c6c7ef36,right,1,0.75,0.05,2,0.042598186,0.198,15,0,15,0,1,,,,,,,,,,
,,711326,001,2023-07-31_20h43.41.359,arm3_eps,2022.2.5,Win32,29.9940012,60d4613121b754739be92895,64c7fed44a04f777bb1e18ce,64c800bdd4a56374c6c7ef36,right,1,0.75,0.05,2,0.065214299,0.165,16,0,16,0,1,,,,,,,,,,
,,711326,001,2023-07-31_20h43.41.359,arm3_eps,2022.2.5,Win32,29.9940012,60d4613121b754739be92895,64c7fed44a04f777bb1e18ce,64c800bdd4a56374c6c7ef36,right,1,0.75,0.05,2,0.055336007,0.167,17,0,17,0,1,,,,,,,,,,
,,711326,001,2023-07-31_20h43.41.359,arm3_eps,2022.2.5,Win32,29.9940012,60d4613121b754739be92895,64c7fed44a04f777bb1e18ce,64c800bdd4a56374c6c7ef36,right,1,0.75,0.05,2,0.053659923,0.183,18,0,18,0,1,,,,,,,,,,
,,711326,001,2023-07-31_20h43.41.359,arm3_eps,2022.2.5,Win32,29.9940012,60d4613121b754739be92895,64c7fed44a04f777bb1e18ce,64c800bdd4a56374c6c7ef36,right,1,0.75,0.05,2,0.061487414,0.181,19,0,19,0,1,,,,,,,,,,
,,711326,001,2023-07-31_20h43.41.359,arm3_eps,2022.2.5,Win32,29.9940012,60d4613121b754739be92895,64c7fed44a04f777bb1e18ce,64c800bdd4a56374c6c7ef36,right,1,0.75,0.05,2,0.060927654,0.182,20,0,20,0,1,,,,,,,,,,
,,711326,001,2023-07-31_20h43.41.359,arm3_eps,2022.2.5,Win32,29.9940012,60d4613121b754739be92895,64c7fed44a04f777bb1e18ce,64c800bdd4a56374c6c7ef36,right,1,0.75,0.05,2,0.065298082,0.2,21,0,21,0,1,,,,,,,,,,
,,711326,001,2023-07-31_20h43.41.359,arm3_eps,2022.2.5,Win32,29.9940012,60d4613121b754739be92895,64c7fed44a04f777bb1e18ce,64c800bdd4a56374c6c7ef36,right,1,0.75,0.05,2,0.064515111,0.182,22,0,22,0,1,,,,,,,,,,
,,711326,001,2023-07-31_20h43.41.359,arm3_eps,2022.2.5,Win32,29.9940012,60d4613121b754739be92895,64c7fed44a04f777bb1e18ce,64c800bdd4a56374c6c7ef36,right,1,0.75,0.05,2,0.056102414,0.2,23,0,23,0,1,,,,,,,,,,
,,711326,001,2023-07-31_20h43.41.359,arm3_eps,2022.2.5,Win32,29.9940012,60d4613121b754739be92895,64c7fed44a04f777bb1e18ce,64c800bdd4a56374c6c7ef36,right,1,0.75,0.05,2,0.078794194,0.182,24,0,24,0,1,,,,,,,,,,
,,711326,001,2023-07-31_20h43.41.359,arm3_eps,2022.2.5,Win32,29.9940012,60d4613121b754739be92895,64c7fed44a04f777bb1e18ce,64c800bdd4a56374c6c7ef36,right,1,0.75,0.05,2,0.063084102,0.216,25,0,25,0,1,,,,,,,,,,
,,711326,001,2023-07-31_20h43.41.359,arm3_eps,2022.2.5,Win32,29.9940012,60d4613121b754739be92895,64c7fed44a04f777bb1e18ce,64c800bdd4a56374c6c7ef36,up,1,0.75,0.05,2,0,0.733,26,0,26,0,1,,,,,,,,,,
,,711326,001,2023-07-31_20h43.41.359,arm3_eps,2022.2.5,Win32,29.9940012,60d4613121b754739be92895,64c7fed44a04f777bb1e18ce,64c800bdd4a56374c6c7ef36,right,1,0.75,0.05,2,-0.000190786,1.116,27,0,27,0,1,,,,,,,,,,
,,711326,001,2023-07-31_20h43.41.359,arm3_eps,2022.2.5,Win32,29.9940012,60d4613121b754739be92895,64c7fed44a04f777bb1e18ce,64c800bdd4a56374c6c7ef36,right,1,0.75,0.05,2,0.016792339,0.188,28,0,28,0,1,,,,,,,,,,
,,711326,001,2023-07-31_20h43.41.359,arm3_eps,2022.2.5,Win32,29.9940012,60d4613121b754739be92895,64c7fed44a04f777bb1e18ce,64c800bdd4a56374c6c7ef36,right,1,0.75,0.05,2,0.026769172,0.18,29,0,29,0,1,,,,,,,,,,
,,711326,001,2023-07-31_20h43.41.359,arm3_eps,2022.2.5,Win32,29.9940012,60d4613121b754739be92895,64c7fed44a04f777bb1e18ce,64c800bdd4a56374c6c7ef36,right,1,0.75,0.05,2,0.031102236,0.182,30,0,30,0,1,,,,,,,,,,
,,711326,001,2023-07-31_20h43.41.359,arm3_eps,2022.2.5,Win32,29.9940012,60d4613121b754739be92895,64c7fed44a04f777bb1e18ce,64c800bdd4a56374c6c7ef36,right,1,0.75,0.05,2,0.075957827,0.166,31,0,31,0,1,,,,,,,,,,
,,711326,001,2023-07-31_20h43.41.359,arm3_eps,2022.2.5,Win32,29.9940012,60d4613121b754739be92895,64c7fed44a04f777bb1e18ce,64c800bdd4a56374c6c7ef36,right,1,0.75,0.05,2,0.110945454,0.183,32,0,32,0,1,,,,,,,,,,
,,711326,001,2023-07-31_20h43.41.359,arm3_eps,2022.2.5,Win32,29.9940012,60d4613121b754739be92895,64c7fed44a04f777bb1e18ce,64c800bdd4a56374c6c7ef36,right,1,0.75,0.05,2,0.12515333,0.182,33,0,33,0,1,,,,,,,,,,
,,711326,001,2023-07-31_20h43.41.359,arm3_eps,2022.2.5,Win32,29.9940012,60d4613121b754739be92895,64c7fed44a04f777bb1e18ce,64c800bdd4a56374c6c7ef36,right,1,0.75,0.05,2,0.155142676,0.15,34,0,34,0,1,,,,,,,,,,
,,711326,001,2023-07-31_20h43.41.359,arm3_eps,2022.2.5,Win32,29.9940012,60d4613121b754739be92895,64c7fed44a04f777bb1e18ce,64c800bdd4a56374c6c7ef36,right,1,0.75,0.05,2,0.13326395,0.184,35,0,35,0,1,,,,,,,,,,
,,711326,001,2023-07-31_20h43.41.359,arm3_eps,2022.2.5,Win32,29.9940012,60d4613121b754739be92895,64c7fed44a04f777bb1e18ce,64c800bdd4a56374c6c7ef36,right,1,0.75,0.05,2,0.154913484,0.198,36,0,36,0,1,,,,,,,,,,
,,711326,001,2023-07-31_20h43.41.359,arm3_eps,2022.2.5,Win32,29.9940012,60d4613121b754739be92895,64c7fed44a04f777bb1e18ce,64c800bdd4a56374c6c7ef36,right,1,0.75,0.05,2,0.161045026,0.198,37,0,37,0,1,,,,,,,,,,
,,711326,001,2023-07-31_20h43.41.359,arm3_eps,2022.2.5,Win32,29.9940012,60d4613121b754739be92895,64c7fed44a04f777bb1e18ce,64c800bdd4a56374c6c7ef36,right,1,0.75,0.05,2,0.159577145,0.2,38,0,38,0,1,,,,,,,,,,
,,711326,001,2023-07-31_20h43.41.359,arm3_eps,2022.2.5,Win32,29.9940012,60d4613121b754739be92895,64c7fed44a04f777bb1e18ce,64c800bdd4a56374c6c7ef36,up,1,0.75,0.05,3,0,0.85,39,0,39,0,1,,,,,,,,,,
,,711326,001,2023-07-31_20h43.41.359,arm3_eps,2022.2.5,Win32,29.9940012,60d4613121b754739be92895,64c7fed44a04f777bb1e18ce,64c800bdd4a56374c6c7ef36,right,1,0.75,0.05,3,-0.006869244,0.789,40,0,40,0,1,,,,,,,,,,
,,711326,001,2023-07-31_20h43.41.359,arm3_eps,2022.2.5,Win32,29.9940012,60d4613121b754739be92895,64c7fed44a04f777bb1e18ce,64c800bdd4a56374c6c7ef36,right,1,0.75,0.05,3,0.013610667,0.182,41,0,41,0,1,,,,,,,,,,
,,711326,001,2023-07-31_20h43.41.359,arm3_eps,2022.2.5,Win32,29.9940012,60d4613121b754739be92895,64c7fed44a04f777bb1e18ce,64c800bdd4a56374c6c7ef36,right,1,0.75,0.05,3,0.02904576,0.165,42,0,42,0,1,,,,,,,,,,
,,711326,001,2023-07-31_20h43.41.359,arm3_eps,2022.2.5,Win32,29.9940012,60d4613121b754739be92895,64c7fed44a04f777bb1e18ce,64c800bdd4a56374c6c7ef36,right,1,0.75,0.05,3,0.02551999,0.2,43,0,43,0,1,,,,,,,,,,
,,711326,001,2023-07-31_20h43.41.359,arm3_eps,2022.2.5,Win32,29.9940012,60d4613121b754739be92895,64c7fed44a04f777bb1e18ce,64c800bdd4a56374c6c7ef36,right,1,0.75,0.05,3,0.059603198,0.185,44,0,44,0,1,,,,,,,,,,
,,711326,001,2023-07-31_20h43.41.359,arm3_eps,2022.2.5,Win32,29.9940012,60d4613121b754739be92895,64c7fed44a04f777bb1e18ce,64c800bdd4a56374c6c7ef36,right,1,0.75,0.05,3,0.092126535,0.233,45,0,45,0,1,,,,,,,,,,
,,711326,001,2023-07-31_20h43.41.359,arm3_eps,2022.2.5,Win32,29.9940012,60d4613121b754739be92895,64c7fed44a04f777bb1e18ce,64c800bdd4a56374c6c7ef36,right,1,0.75,0.05,3,0.09703198,0.282,46,0,46,0,1,,,,,,,,,,
,,711326,001,2023-07-31_20h43.41.359,arm3_eps,2022.2.5,Win32,29.9940012,60d4613121b754739be92895,64c7fed44a04f777bb1e18ce,64c800bdd4a56374c6c7ef36,right,1,0.75,0.05,3,0.091838083,0.215,47,0,47,0,1,,,,,,,,,,
,,711326,001,2023-07-31_20h43.41.359,arm3_eps,2022.2.5,Win32,29.9940012,60d4613121b754739be92895,64c7fed44a04f777bb1e18ce,64c800bdd4a56374c6c7ef36,right,1,0.75,0.05,3,0.112486673,0.215,48,0,48,0,1,,,,,,,,,,
,,711326,001,2023-07-31_20h43.41.359,arm3_eps,2022.2.5,Win32,29.9940012,60d4613121b754739be92895,64c7fed44a04f777bb1e18ce,64c800bdd4a56374c6c7ef36,right,1,0.75,0.05,3,0.112865151,0.198,49,0,49,0,1,,,,,,,,,,
space,18.772,711326,001,2023-07-31_20h43.41.359,arm3_eps,2022.2.5,Win32,29.9940012,60d4613121b754739be92895,64c7fed44a04f777bb1e18ce,64c800bdd4a56374c6c7ef36,,,,,,,,,,,,,,,,,,,,,,
space,0.767,711326,001,2023-07-31_20h43.41.359,arm3_eps,2022.2.5,Win32,29.9940012,60d4613121b754739be92895,64c7fed44a04f777bb1e18ce,64c800bdd4a56374c6c7ef36,,,,,,,,,,,,,,,,,,,,,,
,,711326,001,2023-07-31_20h43.41.359,arm3_eps,2022.2.5,Win32,29.9940012,60d4613121b754739be92895,64c7fed44a04f777bb1e18ce,64c800bdd4a56374c6c7ef36,right,1,0.75,0.5,0,0.013668989,0.71,0,0,0,0,1,,,,,,,,,,
,,711326,001,2023-07-31_20h43.41.359,arm3_eps,2022.2.5,Win32,29.9940012,60d4613121b754739be92895,64c7fed44a04f777bb1e18ce,64c800bdd4a56374c6c7ef36,right,1,0.75,0.5,0,-0.00608053,0.314,1,0,1,0,1,,,,,,,,,,
,,711326,001,2023-07-31_20h43.41.359,arm3_eps,2022.2.5,Win32,29.9940012,60d4613121b754739be92895,64c7fed44a04f777bb1e18ce,64c800bdd4a56374c6c7ef36,right,1,0.75,0.5,0,0.010987923,0.303,2,0,2,0,1,,,,,,,,,,
,,711326,001,2023-07-31_20h43.41.359,arm3_eps,2022.2.5,Win32,29.9940012,60d4613121b754739be92895,64c7fed44a04f777bb1e18ce,64c800bdd4a56374c6c7ef36,right,1,0.75,0.5,0,0.026053134,0.314,3,0,3,0,1,,,,,,,,,,
,,711326,001,2023-07-31_20h43.41.359,arm3_eps,2022.2.5,Win32,29.9940012,60d4613121b754739be92895,64c7fed44a04f777bb1e18ce,64c800bdd4a56374c6c7ef36,right,1,0.75,0.5,0,0.023698243,0.315,4,0,4,0,1,,,,,,,,,,
,,711326,001,2023-07-31_20h43.41.359,arm3_eps,2022.2.5,Win32,29.9940012,60d4613121b754739be92895,64c7fed44a04f777bb1e18ce,64c800bdd4a56374c6c7ef36,right,1,0.75,0.5,0,0.034126959,0.301,5,0,5,0,1,,,,,,,,,,
,,711326,001,2023-07-31_20h43.41.359,arm3_eps,2022.2.5,Win32,29.9940012,60d4613121b754739be92895,64c7fed44a04f777bb1e18ce,64c800bdd4a56374c6c7ef36,right,1,0.75,0.5,0,0.050029506,0.315,6,0,6,0,1,,,,,,,,,,
,,711326,001,2023-07-31_20h43.41.359,arm3_eps,2022.2.5,Win32,29.9940012,60d4613121b754739be92895,64c7fed44a04f777bb1e18ce,64c800bdd4a56374c6c7ef36,right,1,0.75,0.5,0,0.060696331,0.282,7,0,7,0,1,,,,,,,,,,
,,711326,001,2023-07-31_20h43.41.359,arm3_eps,2022.2.5,Win32,29.9940012,60d4613121b754739be92895,64c7fed44a04f777bb1e18ce,64c800bdd4a56374c6c7ef36,right,1,0.75,0.5,0,0.059630465,0.247,8,0,8,0,1,,,,,,,,,,
,,711326,001,2023-07-31_20h43.41.359,arm3_eps,2022.2.5,Win32,29.9940012,60d4613121b754739be92895,64c7fed44a04f777bb1e18ce,64c800bdd4a56374c6c7ef36,right,1,0.75,0.5,0,0.051166577,0.281,9,0,9,0,1,,,,,,,,,,
,,711326,001,2023-07-31_20h43.41.359,arm3_eps,2022.2.5,Win32,29.9940012,60d4613121b754739be92895,64c7fed44a04f777bb1e18ce,64c800bdd4a56374c6c7ef36,right,1,0.75,0.5,0,0.070811371,0.341,10,0,10,0,1,,,,,,,,,,
,,711326,001,2023-07-31_20h43.41.359,arm3_eps,2022.2.5,Win32,29.9940012,60d4613121b754739be92895,64c7fed44a04f777bb1e18ce,64c800bdd4a56374c6c7ef36,right,1,0.75,0.5,0,0.057349713,0.399,11,0,11,0,1,,,,,,,,,,
,,711326,001,2023-07-31_20h43.41.359,arm3_eps,2022.2.5,Win32,29.9940012,60d4613121b754739be92895,64c7fed44a04f777bb1e18ce,64c800bdd4a56374c6c7ef36,up,1,0.75,0.5,0,0,5.448,12,0,12,0,1,,,,,,,,,,
,,711326,001,2023-07-31_20h43.41.359,arm3_eps,2022.2.5,Win32,29.9940012,60d4613121b754739be92895,64c7fed44a04f777bb1e18ce,64c800bdd4a56374c6c7ef36,right,1,0.75,0.5,0,-0.004571355,1.55,13,0,13,0,1,,,,,,,,,,
,,711326,001,2023-07-31_20h43.41.359,arm3_eps,2022.2.5,Win32,29.9940012,60d4613121b754739be92895,64c7fed44a04f777bb1e18ce,64c800bdd4a56374c6c7ef36,right,1,0.75,0.5,0,0.01536617,0.231,14,0,14,0,1,,,,,,,,,,
,,711326,001,2023-07-31_20h43.41.359,arm3_eps,2022.2.5,Win32,29.9940012,60d4613121b754739be92895,64c7fed44a04f777bb1e18ce,64c800bdd4a56374c6c7ef36,right,1,0.75,0.5,0,0.057622485,0.182,15,0,15,0,1,,,,,,,,,,
,,711326,001,2023-07-31_20h43.41.359,arm3_eps,2022.2.5,Win32,29.9940012,60d4613121b754739be92895,64c7fed44a04f777bb1e18ce,64c800bdd4a56374c6c7ef36,right,1,0.75,0.5,0,0.05373322,0.183,16,0,16,0,1,,,,,,,,,,
,,711326,001,2023-07-31_20h43.41.359,arm3_eps,2022.2.5,Win32,29.9940012,60d4613121b754739be92895,64c7fed44a04f777bb1e18ce,64c800bdd4a56374c6c7ef36,right,1,0.75,0.5,0,0.065424907,0.216,17,0,17,0,1,,,,,,,,,,
,,711326,001,2023-07-31_20h43.41.359,arm3_eps,2022.2.5,Win32,29.9940012,60d4613121b754739be92895,64c7fed44a04f777bb1e18ce,64c800bdd4a56374c6c7ef36,right,1,0.75,0.5,0,0.054201928,0.195,18,0,18,0,1,,,,,,,,,,
,,711326,001,2023-07-31_20h43.41.359,arm3_eps,2022.2.5,Win32,29.9940012,60d4613121b754739be92895,64c7fed44a04f777bb1e18ce,64c800bdd4a56374c6c7ef36,right,1,0.75,0.5,0,0.029205749,0.199,19,0,19,0,1,,,,,,,,,,
,,711326,001,2023-07-31_20h43.41.359,arm3_eps,2022.2.5,Win32,29.9940012,60d4613121b754739be92895,64c7fed44a04f777bb1e18ce,64c800bdd4a56374c6c7ef36,right,1,0.75,0.5,0,0.018071412,0.216,20,0,20,0,1,,,,,,,,,,
,,711326,001,2023-07-31_20h43.41.359,arm3_eps,2022.2.5,Win32,29.9940012,60d4613121b754739be92895,64c7fed44a04f777bb1e18ce,64c800bdd4a56374c6c7ef36,right,1,0.75,0.5,0,0.017669831,0.233,21,0,21,0,1,,,,,,,,,,
,,711326,001,2023-07-31_20h43.41.359,arm3_eps,2022.2.5,Win32,29.9940012,60d4613121b754739be92895,64c7fed44a04f777bb1e18ce,64c800bdd4a56374c6c7ef36,right,1,0.75,0.5,0,0.037808976,0.263,22,0,22,0,1,,,,,,,,,,
,,711326,001,2023-07-31_20h43.41.359,arm3_eps,2022.2.5,Win32,29.9940012,60d4613121b754739be92895,64c7fed44a04f777bb1e18ce,64c800bdd4a56374c6c7ef36,right,1,0.75,0.5,0,0.034180789,0.27,23,0,23,0,1,,,,,,,,,,
,,711326,001,2023-07-31_20h43.41.359,arm3_eps,2022.2.5,Win32,29.9940012,60d4613121b754739be92895,64c7fed44a04f777bb1e18ce,64c800bdd4a56374c6c7ef36,right,1,0.75,0.5,0,0.021294674,0.315,24,0,24,0,1,,,,,,,,,,
,,711326,001,2023-07-31_20h43.41.359,arm3_eps,2022.2.5,Win32,29.9940012,60d4613121b754739be92895,64c7fed44a04f777bb1e18ce,64c800bdd4a56374c6c7ef36,up,1,0.75,0.5,0,0,1.966,25,0,25,0,1,,,,,,,,,,
,,711326,001,2023-07-31_20h43.41.359,arm3_eps,2022.2.5,Win32,29.9940012,60d4613121b754739be92895,64c7fed44a04f777bb1e18ce,64c800bdd4a56374c6c7ef36,right,1,0.75,0.5,0,-0.000679557,1.1,26,0,26,0,1,,,,,,,,,,
,,711326,001,2023-07-31_20h43.41.359,arm3_eps,2022.2.5,Win32,29.9940012,60d4613121b754739be92895,64c7fed44a04f777bb1e18ce,64c800bdd4a56374c6c7ef36,right,1,0.75,0.5,0,0.002612078,0.198,27,0,27,0,1,,,,,,,,,,
,,711326,001,2023-07-31_20h43.41.359,arm3_eps,2022.2.5,Win32,29.9940012,60d4613121b754739be92895,64c7fed44a04f777bb1e18ce,64c800bdd4a56374c6c7ef36,right,1,0.75,0.5,0,-0.015912198,0.181,28,0,28,0,1,,,,,,,,,,
,,711326,001,2023-07-31_20h43.41.359,arm3_eps,2022.2.5,Win32,29.9940012,60d4613121b754739be92895,64c7fed44a04f777bb1e18ce,64c800bdd4a56374c6c7ef36,right,1,0.75,0.5,0,0.00802172,0.199,29,0,29,0,1,,,,,,,,,,
,,711326,001,2023-07-31_20h43.41.359,arm3_eps,2022.2.5,Win32,29.9940012,60d4613121b754739be92895,64c7fed44a04f777bb1e18ce,64c800bdd4a56374c6c7ef36,right,1,0.75,0.5,0,0.025332288,0.189,30,0,30,0,1,,,,,,,,,,
,,711326,001,2023-07-31_20h43.41.359,arm3_eps,2022.2.5,Win32,29.9940012,60d4613121b754739be92895,64c7fed44a04f777bb1e18ce,64c800bdd4a56374c6c7ef36,right,1,0.75,0.5,0,0.042503259,0.248,31,0,31,0,1,,,,,,,,,,
,,711326,001,2023-07-31_20h43.41.359,arm3_eps,2022.2.5,Win32,29.9940012,60d4613121b754739be92895,64c7fed44a04f777bb1e18ce,64c800bdd4a56374c6c7ef36,right,1,0.75,0.5,0,0.071932618,0.25,32,0,32,0,1,,,,,,,,,,
,,711326,001,2023-07-31_20h43.41.359,arm3_eps,2022.2.5,Win32,29.9940012,60d4613121b754739be92895,64c7fed44a04f777bb1e18ce,64c800bdd4a56374c6c7ef36,right,1,0.75,0.5,0,0.071681506,0.217,33,0,33,0,1,,,,,,,,,,
,,711326,001,2023-07-31_20h43.41.359,arm3_eps,2022.2.5,Win32,29.9940012,60d4613121b754739be92895,64c7fed44a04f777bb1e18ce,64c800bdd4a56374c6c7ef36,right,1,0.75,0.5,0,0.061671648,0.199,34,0,34,0,1,,,,,,,,,,
,,711326,001,2023-07-31_20h43.41.359,arm3_eps,2022.2.5,Win32,29.9940012,60d4613121b754739be92895,64c7fed44a04f777bb1e18ce,64c800bdd4a56374c6c7ef36,right,1,0.75,0.5,0,0.038702937,0.249,35,0,35,0,1,,,,,,,,,,
,,711326,001,2023-07-31_20h43.41.359,arm3_eps,2022.2.5,Win32,29.9940012,60d4613121b754739be92895,64c7fed44a04f777bb1e18ce,64c800bdd4a56374c6c7ef36,right,1,0.75,0.5,0,0.05286317,0.293,36,0,36,0,1,,,,,,,,,,
,,711326,001,2023-07-31_20h43.41.359,arm3_eps,2022.2.5,Win32,29.9940012,60d4613121b754739be92895,64c7fed44a04f777bb1e18ce,64c800bdd4a56374c6c7ef36,right,1,0.75,0.5,0,0.071168119,0.312,37,0,37,0,1,,,,,,,,,,
,,711326,001,2023-07-31_20h43.41.359,arm3_eps,2022.2.5,Win32,29.9940012,60d4613121b754739be92895,64c7fed44a04f777bb1e18ce,64c800bdd4a56374c6c7ef36,down,-1,0.75,0.5,-1,0,1.998,38,0,38,0,1,,,,,,,,,,
,,711326,001,2023-07-31_20h43.41.359,arm3_eps,2022.2.5,Win32,29.9940012,60d4613121b754739be92895,64c7fed44a04f777bb1e18ce,64c800bdd4a56374c6c7ef36,right,-1,0.75,0.5,-1,0.014449965,1.172,39,0,39,0,1,,,,,,,,,,
,,711326,001,2023-07-31_20h43.41.359,arm3_eps,2022.2.5,Win32,29.9940012,60d4613121b754739be92895,64c7fed44a04f777bb1e18ce,64c800bdd4a56374c6c7ef36,right,-1,0.75,0.5,-1,-0.019429818,0.163,40,0,40,0,1,,,,,,,,,,
,,711326,001,2023-07-31_20h43.41.359,arm3_eps,2022.2.5,Win32,29.9940012,60d4613121b754739be92895,64c7fed44a04f777bb1e18ce,64c800bdd4a56374c6c7ef36,right,-1,0.75,0.5,-1,-0.018584667,0.199,41,0,41,0,1,,,,,,,,,,
,,711326,001,2023-07-31_20h43.41.359,arm3_eps,2022.2.5,Win32,29.9940012,60d4613121b754739be92895,64c7fed44a04f777bb1e18ce,64c800bdd4a56374c6c7ef36,right,-1,0.75,0.5,-1,-0.026087769,0.205,42,0,42,0,1,,,,,,,,,,
,,711326,001,2023-07-31_20h43.41.359,arm3_eps,2022.2.5,Win32,29.9940012,60d4613121b754739be92895,64c7fed44a04f777bb1e18ce,64c800bdd4a56374c6c7ef36,right,-1,0.75,0.5,-1,-0.007382551,0.214,43,0,43,0,1,,,,,,,,,,
,,711326,001,2023-07-31_20h43.41.359,arm3_eps,2022.2.5,Win32,29.9940012,60d4613121b754739be92895,64c7fed44a04f777bb1e18ce,64c800bdd4a56374c6c7ef36,right,-1,0.75,0.5,-1,-0.027525833,0.267,44,0,44,0,1,,,,,,,,,,
,,711326,001,2023-07-31_20h43.41.359,arm3_eps,2022.2.5,Win32,29.9940012,60d4613121b754739be92895,64c7fed44a04f777bb1e18ce,64c800bdd4a56374c6c7ef36,right,-1,0.75,0.5,-1,-0.045102073,0.297,45,0,45,0,1,,,,,,,,,,
,,711326,001,2023-07-31_20h43.41.359,arm3_eps,2022.2.5,Win32,29.9940012,60d4613121b754739be92895,64c7fed44a04f777bb1e18ce,64c800bdd4a56374c6c7ef36,right,-1,0.75,0.5,-1,-0.059493401,0.297,46,0,46,0,1,,,,,,,,,,
,,711326,001,2023-07-31_20h43.41.359,arm3_eps,2022.2.5,Win32,29.9940012,60d4613121b754739be92895,64c7fed44a04f777bb1e18ce,64c800bdd4a56374c6c7ef36,right,-1,0.75,0.5,-1,-0.057677841,0.297,47,0,47,0,1,,,,,,,,,,
,,711326,001,2023-07-31_20h43.41.359,arm3_eps,2022.2.5,Win32,29.9940012,60d4613121b754739be92895,64c7fed44a04f777bb1e18ce,64c800bdd4a56374c6c7ef36,right,-1,0.75,0.5,-1,-0.035450354,0.2,48,0,48,0,1,,,,,,,,,,
,,711326,001,2023-07-31_20h43.41.359,arm3_eps,2022.2.5,Win32,29.9940012,60d4613121b754739be92895,64c7fed44a04f777bb1e18ce,64c800bdd4a56374c6c7ef36,right,-1,0.75,0.5,-1,-0.0498629,0.191,49,0,49,0,1,,,,,,,,,,
space,2.06,711326,001,2023-07-31_20h43.41.359,arm3_eps,2022.2.5,Win32,29.9940012,60d4613121b754739be92895,64c7fed44a04f777bb1e18ce,64c800bdd4a56374c6c7ef36,,,,,,,,,,,,,,,,,,,,,,
space,4.283,711326,001,2023-07-31_20h43.41.359,arm3_eps,2022.2.5,Win32,29.9940012,60d4613121b754739be92895,64c7fed44a04f777bb1e18ce,64c800bdd4a56374c6c7ef36,right,-1,0.75,0.1786,0,-0.013077358,0.848,,,,,,0,0,0,0,1,,,,,
,,711326,001,2023-07-31_20h43.41.359,arm3_eps,2022.2.5,Win32,29.9940012,60d4613121b754739be92895,64c7fed44a04f777bb1e18ce,64c800bdd4a56374c6c7ef36,right,-1,0.75,0.1786,0,-0.0527478,0.266,,,,,,1,0,1,0,1,,,,,
,,711326,001,2023-07-31_20h43.41.359,arm3_eps,2022.2.5,Win32,29.9940012,60d4613121b754739be92895,64c7fed44a04f777bb1e18ce,64c800bdd4a56374c6c7ef36,right,-1,0.75,0.1786,0,-0.059289687,0.216,,,,,,2,0,2,0,1,,,,,
,,711326,001,2023-07-31_20h43.41.359,arm3_eps,2022.2.5,Win32,29.9940012,60d4613121b754739be92895,64c7fed44a04f777bb1e18ce,64c800bdd4a56374c6c7ef36,right,-1,0.75,0.1786,0,-0.09743,0.401,,,,,,3,0,3,0,1,,,,,
,,711326,001,2023-07-31_20h43.41.359,arm3_eps,2022.2.5,Win32,29.9940012,60d4613121b754739be92895,64c7fed44a04f777bb1e18ce,64c800bdd4a56374c6c7ef36,right,-1,0.75,0.1786,0,-0.104301707,0.201,,,,,,4,0,4,0,1,,,,,
,,711326,001,2023-07-31_20h43.41.359,arm3_eps,2022.2.5,Win32,29.9940012,60d4613121b754739be92895,64c7fed44a04f777bb1e18ce,64c800bdd4a56374c6c7ef36,right,-1,0.75,0.1786,0,-0.105030208,0.2,,,,,,5,0,5,0,1,,,,,
,,711326,001,2023-07-31_20h43.41.359,arm3_eps,2022.2.5,Win32,29.9940012,60d4613121b754739be92895,64c7fed44a04f777bb1e18ce,64c800bdd4a56374c6c7ef36,right,-1,0.75,0.1786,0,-0.082173699,0.183,,,,,,6,0,6,0,1,,,,,
,,711326,001,2023-07-31_20h43.41.359,arm3_eps,2022.2.5,Win32,29.9940012,60d4613121b754739be92895,64c7fed44a04f777bb1e18ce,64c800bdd4a56374c6c7ef36,right,-1,0.75,0.1786,0,-0.091318564,0.183,,,,,,7,0,7,0,1,,,,,
,,711326,001,2023-07-31_20h43.41.359,arm3_eps,2022.2.5,Win32,29.9940012,60d4613121b754739be92895,64c7fed44a04f777bb1e18ce,64c800bdd4a56374c6c7ef36,right,-1,0.75,0.1786,0,-0.104242489,0.169,,,,,,8,0,8,0,1,,,,,
,,711326,001,2023-07-31_20h43.41.359,arm3_eps,2022.2.5,Win32,29.9940012,60d4613121b754739be92895,64c7fed44a04f777bb1e18ce,64c800bdd4a56374c6c7ef36,right,-1,0.75,0.1786,0,-0.076246669,0.185,,,,,,9,0,9,0,1,,,,,
,,711326,001,2023-07-31_20h43.41.359,arm3_eps,2022.2.5,Win32,29.9940012,60d4613121b754739be92895,64c7fed44a04f777bb1e18ce,64c800bdd4a56374c6c7ef36,right,-1,0.75,0.1786,0,-0.07413612,0.161,,,,,,10,0,10,0,1,,,,,
,,711326,001,2023-07-31_20h43.41.359,arm3_eps,2022.2.5,Win32,29.9940012,60d4613121b754739be92895,64c7fed44a04f777bb1e18ce,64c800bdd4a56374c6c7ef36,right,-1,0.75,0.1786,0,-0.104386779,0.231,,,,,,11,0,11,0,1,,,,,
,,711326,001,2023-07-31_20h43.41.359,arm3_eps,2022.2.5,Win32,29.9940012,60d4613121b754739be92895,64c7fed44a04f777bb1e18ce,64c800bdd4a56374c6c7ef36,down,-1,0.75,0.1786,1,0,0.984,,,,,,12,0,12,0,1,,,,,
,,711326,001,2023-07-31_20h43.41.359,arm3_eps,2022.2.5,Win32,29.9940012,60d4613121b754739be92895,64c7fed44a04f777bb1e18ce,64c800bdd4a56374c6c7ef36,right,-1,0.75,0.1786,1,-0.005909109,1.433,,,,,,13,0,13,0,1,,,,,
,,711326,001,2023-07-31_20h43.41.359,arm3_eps,2022.2.5,Win32,29.9940012,60d4613121b754739be92895,64c7fed44a04f777bb1e18ce,64c800bdd4a56374c6c7ef36,right,-1,0.75,0.1786,1,-0.011805576,0.166,,,,,,14,0,14,0,1,,,,,
,,711326,001,2023-07-31_20h43.41.359,arm3_eps,2022.2.5,Win32,29.9940012,60d4613121b754739be92895,64c7fed44a04f777bb1e18ce,64c800bdd4a56374c6c7ef36,right,-1,0.75,0.1786,1,-0.007180919,0.178,,,,,,15,0,15,0,1,,,,,
,,711326,001,2023-07-31_20h43.41.359,arm3_eps,2022.2.5,Win32,29.9940012,60d4613121b754739be92895,64c7fed44a04f777bb1e18ce,64c800bdd4a56374c6c7ef36,right,-1,0.75,0.1786,1,-0.044456374,0.131,,,,,,16,0,16,0,1,,,,,
,,711326,001,2023-07-31_20h43.41.359,arm3_eps,2022.2.5,Win32,29.9940012,60d4613121b754739be92895,64c7fed44a04f777bb1e18ce,64c800bdd4a56374c6c7ef36,right,-1,0.75,0.1786,1,-0.043834669,0.155,,,,,,17,0,17,0,1,,,,,
,,711326,001,2023-07-31_20h43.41.359,arm3_eps,2022.2.5,Win32,29.9940012,60d4613121b754739be92895,64c7fed44a04f777bb1e18ce,64c800bdd4a56374c6c7ef36,right,-1,0.75,0.1786,1,-0.056071449,0.172,,,,,,18,0,18,0,1,,,,,
,,711326,001,2023-07-31_20h43.41.359,arm3_eps,2022.2.5,Win32,29.9940012,60d4613121b754739be92895,64c7fed44a04f777bb1e18ce,64c800bdd4a56374c6c7ef36,right,-1,0.75,0.1786,1,-0.1009063,0.168,,,,,,19,0,19,0,1,,,,,
,,711326,001,2023-07-31_20h43.41.359,arm3_eps,2022.2.5,Win32,29.9940012,60d4613121b754739be92895,64c7fed44a04f777bb1e18ce,64c800bdd4a56374c6c7ef36,right,-1,0.75,0.1786,1,-0.122580522,0.181,,,,,,20,0,20,0,1,,,,,
,,711326,001,2023-07-31_20h43.41.359,arm3_eps,2022.2.5,Win32,29.9940012,60d4613121b754739be92895,64c7fed44a04f777bb1e18ce,64c800bdd4a56374c6c7ef36,right,-1,0.75,0.1786,1,-0.137703764,0.206,,,,,,21,0,21,0,1,,,,,
,,711326,001,2023-07-31_20h43.41.359,arm3_eps,2022.2.5,Win32,29.9940012,60d4613121b754739be92895,64c7fed44a04f777bb1e18ce,64c800bdd4a56374c6c7ef36,right,-1,0.75,0.1786,1,-0.114866319,0.166,,,,,,22,0,22,0,1,,,,,
,,711326,001,2023-07-31_20h43.41.359,arm3_eps,2022.2.5,Win32,29.9940012,60d4613121b754739be92895,64c7fed44a04f777bb1e18ce,64c800bdd4a56374c6c7ef36,right,-1,0.75,0.1786,1,-0.085798983,0.25,,,,,,23,0,23,0,1,,,,,
,,711326,001,2023-07-31_20h43.41.359,arm3_eps,2022.2.5,Win32,29.9940012,60d4613121b754739be92895,64c7fed44a04f777bb1e18ce,64c800bdd4a56374c6c7ef36,right,-1,0.75,0.1786,1,-0.116781017,0.333,,,,,,24,0,24,0,1,,,,,
,,711326,001,2023-07-31_20h43.41.359,arm3_eps,2022.2.5,Win32,29.9940012,60d4613121b754739be92895,64c7fed44a04f777bb1e18ce,64c800bdd4a56374c6c7ef36,down,-1,0.75,0.1786,1,0,0.968,,,,,,25,0,25,0,1,,,,,
,,711326,001,2023-07-31_20h43.41.359,arm3_eps,2022.2.5,Win32,29.9940012,60d4613121b754739be92895,64c7fed44a04f777bb1e18ce,64c800bdd4a56374c6c7ef36,right,-1,0.75,0.1786,1,-0.0246023,0.971,,,,,,26,0,26,0,1,,,,,
,,711326,001,2023-07-31_20h43.41.359,arm3_eps,2022.2.5,Win32,29.9940012,60d4613121b754739be92895,64c7fed44a04f777bb1e18ce,64c800bdd4a56374c6c7ef36,right,-1,0.75,0.1786,1,-0.012001768,0.199,,,,,,27,0,27,0,1,,,,,
,,711326,001,2023-07-31_20h43.41.359,arm3_eps,2022.2.5,Win32,29.9940012,60d4613121b754739be92895,64c7fed44a04f777bb1e18ce,64c800bdd4a56374c6c7ef36,right,-1,0.75,0.1786,1,-0.058026112,0.166,,,,,,28,0,28,0,1,,,,,
,,711326,001,2023-07-31_20h43.41.359,arm3_eps,2022.2.5,Win32,29.9940012,60d4613121b754739be92895,64c7fed44a04f777bb1e18ce,64c800bdd4a56374c6c7ef36,right,-1,0.75,0.1786,1,-0.077320952,0.164,,,,,,29,0,29,0,1,,,,,
,,711326,001,2023-07-31_20h43.41.359,arm3_eps,2022.2.5,Win32,29.9940012,60d4613121b754739be92895,64c7fed44a04f777bb1e18ce,64c800bdd4a56374c6c7ef36,right,-1,0.75,0.1786,1,-0.123194876,0.166,,,,,,30,0,30,0,1,,,,,
,,711326,001,2023-07-31_20h43.41.359,arm3_eps,2022.2.5,Win32,29.9940012,60d4613121b754739be92895,64c7fed44a04f777bb1e18ce,64c800bdd4a56374c6c7ef36,right,-1,0.75,0.1786,1,-0.157042798,0.166,,,,,,31,0,31,0,1,,,,,
,,711326,001,2023-07-31_20h43.41.359,arm3_eps,2022.2.5,Win32,29.9940012,60d4613121b754739be92895,64c7fed44a04f777bb1e18ce,64c800bdd4a56374c6c7ef36,right,-1,0.75,0.1786,1,-0.195009967,0.183,,,,,,32,0,32,0,1,,,,,
,,711326,001,2023-07-31_20h43.41.359,arm3_eps,2022.2.5,Win32,29.9940012,60d4613121b754739be92895,64c7fed44a04f777bb1e18ce,64c800bdd4a56374c6c7ef36,right,-1,0.75,0.1786,1,-0.211772891,0.173,,,,,,33,0,33,0,1,,,,,
,,711326,001,2023-07-31_20h43.41.359,arm3_eps,2022.2.5,Win32,29.9940012,60d4613121b754739be92895,64c7fed44a04f777bb1e18ce,64c800bdd4a56374c6c7ef36,right,-1,0.75,0.1786,1,-0.205974046,0.181,,,,,,34,0,34,0,1,,,,,
,,711326,001,2023-07-31_20h43.41.359,arm3_eps,2022.2.5,Win32,29.9940012,60d4613121b754739be92895,64c7fed44a04f777bb1e18ce,64c800bdd4a56374c6c7ef36,right,-1,0.75,0.1786,1,-0.19586984,0.23,,,,,,35,0,35,0,1,,,,,
,,711326,001,2023-07-31_20h43.41.359,arm3_eps,2022.2.5,Win32,29.9940012,60d4613121b754739be92895,64c7fed44a04f777bb1e18ce,64c800bdd4a56374c6c7ef36,right,-1,0.75,0.1786,1,-0.205914412,0.217,,,,,,36,0,36,0,1,,,,,
,,711326,001,2023-07-31_20h43.41.359,arm3_eps,2022.2.5,Win32,29.9940012,60d4613121b754739be92895,64c7fed44a04f777bb1e18ce,64c800bdd4a56374c6c7ef36,right,-1,0.75,0.1786,1,-0.198125856,0.265,,,,,,37,0,37,0,1,,,,,
,,711326,001,2023-07-31_20h43.41.359,arm3_eps,2022.2.5,Win32,29.9940012,60d4613121b754739be92895,64c7fed44a04f777bb1e18ce,64c800bdd4a56374c6c7ef36,down,-1,0.75,0.1786,1,0,2.484,,,,,,38,0,38,0,1,,,,,
,,711326,001,2023-07-31_20h43.41.359,arm3_eps,2022.2.5,Win32,29.9940012,60d4613121b754739be92895,64c7fed44a04f777bb1e18ce,64c800bdd4a56374c6c7ef36,right,-1,0.75,0.1786,1,-0.033209851,1.282,,,,,,39,0,39,0,1,,,,,
,,711326,001,2023-07-31_20h43.41.359,arm3_eps,2022.2.5,Win32,29.9940012,60d4613121b754739be92895,64c7fed44a04f777bb1e18ce,64c800bdd4a56374c6c7ef36,right,-1,0.75,0.1786,1,-0.023499171,0.232,,,,,,40,0,40,0,1,,,,,
,,711326,001,2023-07-31_20h43.41.359,arm3_eps,2022.2.5,Win32,29.9940012,60d4613121b754739be92895,64c7fed44a04f777bb1e18ce,64c800bdd4a56374c6c7ef36,right,-1,0.75,0.1786,1,-0.038994625,0.165,,,,,,41,0,41,0,1,,,,,
,,711326,001,2023-07-31_20h43.41.359,arm3_eps,2022.2.5,Win32,29.9940012,60d4613121b754739be92895,64c7fed44a04f777bb1e18ce,64c800bdd4a56374c6c7ef36,right,-1,0.75,0.1786,1,-0.076014403,0.165,,,,,,42,0,42,0,1,,,,,
,,711326,001,2023-07-31_20h43.41.359,arm3_eps,2022.2.5,Win32,29.9940012,60d4613121b754739be92895,64c7fed44a04f777bb1e18ce,64c800bdd4a56374c6c7ef36,right,-1,0.75,0.1786,1,-0.095893946,0.148,,,,,,43,0,43,0,1,,,,,
,,711326,001,2023-07-31_20h43.41.359,arm3_eps,2022.2.5,Win32,29.9940012,60d4613121b754739be92895,64c7fed44a04f777bb1e18ce,64c800bdd4a56374c6c7ef36,right,-1,0.75,0.1786,1,-0.124114114,0.198,,,,,,44,0,44,0,1,,,,,
,,711326,001,2023-07-31_20h43.41.359,arm3_eps,2022.2.5,Win32,29.9940012,60d4613121b754739be92895,64c7fed44a04f777bb1e18ce,64c800bdd4a56374c6c7ef36,right,-1,0.75,0.1786,1,-0.112477543,0.15,,,,,,45,0,45,0,1,,,,,
,,711326,001,2023-07-31_20h43.41.359,arm3_eps,2022.2.5,Win32,29.9940012,60d4613121b754739be92895,64c7fed44a04f777bb1e18ce,64c800bdd4a56374c6c7ef36,right,-1,0.75,0.1786,1,-0.119316395,0.178,,,,,,46,0,46,0,1,,,,,
,,711326,001,2023-07-31_20h43.41.359,arm3_eps,2022.2.5,Win32,29.9940012,60d4613121b754739be92895,64c7fed44a04f777bb1e18ce,64c800bdd4a56374c6c7ef36,right,-1,0.75,0.1786,1,-0.147464386,0.183,,,,,,47,0,47,0,1,,,,,
,,711326,001,2023-07-31_20h43.41.359,arm3_eps,2022.2.5,Win32,29.9940012,60d4613121b754739be92895,64c7fed44a04f777bb1e18ce,64c800bdd4a56374c6c7ef36,right,-1,0.75,0.1786,1,-0.155191375,0.174,,,,,,48,0,48,0,1,,,,,
,,711326,001,2023-07-31_20h43.41.359,arm3_eps,2022.2.5,Win32,29.9940012,60d4613121b754739be92895,64c7fed44a04f777bb1e18ce,64c800bdd4a56374c6c7ef36,right,-1,0.75,0.1786,1,-0.16000487,0.199,,,,,,49,0,49,0,1,,,,,
,,711326,001,2023-07-31_20h43.41.359,arm3_eps,2022.2.5,Win32,29.9940012,60d4613121b754739be92895,64c7fed44a04f777bb1e18ce,64c800bdd4a56374c6c7ef36,right,-1,0.75,0.1786,1,-0.184996036,0.182,,,,,,50,0,50,0,1,,,,,
,,711326,001,2023-07-31_20h43.41.359,arm3_eps,2022.2.5,Win32,29.9940012,60d4613121b754739be92895,64c7fed44a04f777bb1e18ce,64c800bdd4a56374c6c7ef36,up,-1,0.75,0.1786,0,0,2.632,,,,,,51,0,51,0,1,,,,,
,,711326,001,2023-07-31_20h43.41.359,arm3_eps,2022.2.5,Win32,29.9940012,60d4613121b754739be92895,64c7fed44a04f777bb1e18ce,64c800bdd4a56374c6c7ef36,right,-1,0.75,0.1786,0,-0.008317228,1.024,,,,,,52,0,52,0,1,,,,,
,,711326,001,2023-07-31_20h43.41.359,arm3_eps,2022.2.5,Win32,29.9940012,60d4613121b754739be92895,64c7fed44a04f777bb1e18ce,64c800bdd4a56374c6c7ef36,right,-1,0.75,0.1786,0,0.003540027,0.199,,,,,,53,0,53,0,1,,,,,
,,711326,001,2023-07-31_20h43.41.359,arm3_eps,2022.2.5,Win32,29.9940012,60d4613121b754739be92895,64c7fed44a04f777bb1e18ce,64c800bdd4a56374c6c7ef36,right,-1,0.75,0.1786,0,0.009117965,0.132,,,,,,54,0,54,0,1,,,,,
,,711326,001,2023-07-31_20h43.41.359,arm3_eps,2022.2.5,Win32,29.9940012,60d4613121b754739be92895,64c7fed44a04f777bb1e18ce,64c800bdd4a56374c6c7ef36,right,-1,0.75,0.1786,0,-0.011341876,0.167,,,,,,55,0,55,0,1,,,,,
,,711326,001,2023-07-31_20h43.41.359,arm3_eps,2022.2.5,Win32,29.9940012,60d4613121b754739be92895,64c7fed44a04f777bb1e18ce,64c800bdd4a56374c6c7ef36,right,-1,0.75,0.1786,0,-0.025680712,0.382,,,,,,56,0,56,0,1,,,,,
,,711326,001,2023-07-31_20h43.41.359,arm3_eps,2022.2.5,Win32,29.9940012,60d4613121b754739be92895,64c7fed44a04f777bb1e18ce,64c800bdd4a56374c6c7ef36,right,-1,0.75,0.1786,0,-0.031728166,0.182,,,,,,57,0,57,0,1,,,,,
,,711326,001,2023-07-31_20h43.41.359,arm3_eps,2022.2.5,Win32,29.9940012,60d4613121b754739be92895,64c7fed44a04f777bb1e18ce,64c800bdd4a56374c6c7ef36,right,-1,0.75,0.1786,0,-0.037751119,0.198,,,,,,58,0,58,0,1,,,,,
,,711326,001,2023-07-31_20h43.41.359,arm3_eps,2022.2.5,Win32,29.9940012,60d4613121b754739be92895,64c7fed44a04f777bb1e18ce,64c800bdd4a56374c6c7ef36,right,-1,0.75,0.1786,0,-0.058947423,0.165,,,,,,59,0,59,0,1,,,,,
,,711326,001,2023-07-31_20h43.41.359,arm3_eps,2022.2.5,Win32,29.9940012,60d4613121b754739be92895,64c7fed44a04f777bb1e18ce,64c800bdd4a56374c6c7ef36,right,-1,0.75,0.1786,0,-0.07415135,0.18,,,,,,60,0,60,0,1,,,,,
,,711326,001,2023-07-31_20h43.41.359,arm3_eps,2022.2.5,Win32,29.9940012,60d4613121b754739be92895,64c7fed44a04f777bb1e18ce,64c800bdd4a56374c6c7ef36,right,-1,0.75,0.1786,0,-0.101588649,0.171,,,,,,61,0,61,0,1,,,,,
,,711326,001,2023-07-31_20h43.41.359,arm3_eps,2022.2.5,Win32,29.9940012,60d4613121b754739be92895,64c7fed44a04f777bb1e18ce,64c800bdd4a56374c6c7ef36,right,-1,0.75,0.1786,0,-0.151045526,0.188,,,,,,62,0,62,0,1,,,,,
,,711326,001,2023-07-31_20h43.41.359,arm3_eps,2022.2.5,Win32,29.9940012,60d4613121b754739be92895,64c7fed44a04f777bb1e18ce,64c800bdd4a56374c6c7ef36,right,-1,0.75,0.1786,0,-0.149989771,0.176,,,,,,63,0,63,0,1,,,,,
,,711326,001,2023-07-31_20h43.41.359,arm3_eps,2022.2.5,Win32,29.9940012,60d4613121b754739be92895,64c7fed44a04f777bb1e18ce,64c800bdd4a56374c6c7ef36,down,1,0.75,0.1786,1,0,1.201,,,,,,64,0,64,0,1,,,,,
,,711326,001,2023-07-31_20h43.41.359,arm3_eps,2022.2.5,Win32,29.9940012,60d4613121b754739be92895,64c7fed44a04f777bb1e18ce,64c800bdd4a56374c6c7ef36,right,1,0.75,0.1786,1,0.024739443,0.927,,,,,,65,0,65,0,1,,,,,
,,711326,001,2023-07-31_20h43.41.359,arm3_eps,2022.2.5,Win32,29.9940012,60d4613121b754739be92895,64c7fed44a04f777bb1e18ce,64c800bdd4a56374c6c7ef36,right,1,0.75,0.1786,1,0.027008364,0.197,,,,,,66,0,66,0,1,,,,,
,,711326,001,2023-07-31_20h43.41.359,arm3_eps,2022.2.5,Win32,29.9940012,60d4613121b754739be92895,64c7fed44a04f777bb1e18ce,64c800bdd4a56374c6c7ef36,right,1,0.75,0.1786,1,0.035087813,0.181,,,,,,67,0,67,0,1,,,,,
,,711326,001,2023-07-31_20h43.41.359,arm3_eps,2022.2.5,Win32,29.9940012,60d4613121b754739be92895,64c7fed44a04f777bb1e18ce,64c800bdd4a56374c6c7ef36,right,1,0.75,0.1786,1,0.042415811,0.148,,,,,,68,0,68,0,1,,,,,
,,711326,001,2023-07-31_20h43.41.359,arm3_eps,2022.2.5,Win32,29.9940012,60d4613121b754739be92895,64c7fed44a04f777bb1e18ce,64c800bdd4a56374c6c7ef36,right,1,0.75,0.1786,1,0.074669964,0.164,,,,,,69,0,69,0,1,,,,,
,,711326,001,2023-07-31_20h43.41.359,arm3_eps,2022.2.5,Win32,29.9940012,60d4613121b754739be92895,64c7fed44a04f777bb1e18ce,64c800bdd4a56374c6c7ef36,right,1,0.75,0.1786,1,0.096469013,0.164,,,,,,70,0,70,0,1,,,,,
,,711326,001,2023-07-31_20h43.41.359,arm3_eps,2022.2.5,Win32,29.9940012,60d4613121b754739be92895,64c7fed44a04f777bb1e18ce,64c800bdd4a56374c6c7ef36,right,1,0.75,0.1786,1,0.123443668,0.181,,,,,,71,0,71,0,1,,,,,
,,711326,001,2023-07-31_20h43.41.359,arm3_eps,2022.2.5,Win32,29.9940012,60d4613121b754739be92895,64c7fed44a04f777bb1e18ce,64c800bdd4a56374c6c7ef36,right,1,0.75,0.1786,1,0.119370995,0.176,,,,,,72,0,72,0,1,,,,,
,,711326,001,2023-07-31_20h43.41.359,arm3_eps,2022.2.5,Win32,29.9940012,60d4613121b754739be92895,64c7fed44a04f777bb1e18ce,64c800bdd4a56374c6c7ef36,right,1,0.75,0.1786,1,0.137994127,0.198,,,,,,73,0,73,0,1,,,,,
,,711326,001,2023-07-31_20h43.41.359,arm3_eps,2022.2.5,Win32,29.9940012,60d4613121b754739be92895,64c7fed44a04f777bb1e18ce,64c800bdd4a56374c6c7ef36,right,1,0.75,0.1786,1,0.11878795,0.164,,,,,,74,0,74,0,1,,,,,
,,711326,001,2023-07-31_20h43.41.359,arm3_eps,2022.2.5,Win32,29.9940012,60d4613121b754739be92895,64c7fed44a04f777bb1e18ce,64c800bdd4a56374c6c7ef36,right,1,0.75,0.1786,1,0.149862748,0.199,,,,,,75,0,75,0,1,,,,,
,,711326,001,2023-07-31_20h43.41.359,arm3_eps,2022.2.5,Win32,29.9940012,60d4613121b754739be92895,64c7fed44a04f777bb1e18ce,64c800bdd4a56374c6c7ef36,right,1,0.75,0.1786,1,0.160046449,0.198,,,,,,76,0,76,0,1,,,,,
,,711326,001,2023-07-31_20h43.41.359,arm3_eps,2022.2.5,Win32,29.9940012,60d4613121b754739be92895,64c7fed44a04f777bb1e18ce,64c800bdd4a56374c6c7ef36,up,1,0.75,0.1786,2,0,0.781,,,,,,77,0,77,0,1,,,,,
,,711326,001,2023-07-31_20h43.41.359,arm3_eps,2022.2.5,Win32,29.9940012,60d4613121b754739be92895,64c7fed44a04f777bb1e18ce,64c800bdd4a56374c6c7ef36,right,1,0.75,0.1786,2,-0.002349378,0.622,,,,,,78,0,78,0,1,,,,,
,,711326,001,2023-07-31_20h43.41.359,arm3_eps,2022.2.5,Win32,29.9940012,60d4613121b754739be92895,64c7fed44a04f777bb1e18ce,64c800bdd4a56374c6c7ef36,right,1,0.75,0.1786,2,0.019618876,0.183,,,,,,79,0,79,0,1,,,,,
,,711326,001,2023-07-31_20h43.41.359,arm3_eps,2022.2.5,Win32,29.9940012,60d4613121b754739be92895,64c7fed44a04f777bb1e18ce,64c800bdd4a56374c6c7ef36,right,1,0.75,0.1786,2,0.041515282,0.166,,,,,,80,0,80,0,1,,,,,
,,711326,001,2023-07-31_20h43.41.359,arm3_eps,2022.2.5,Win32,29.9940012,60d4613121b754739be92895,64c7fed44a04f777bb1e18ce,64c800bdd4a56374c6c7ef36,right,1,0.75,0.1786,2,0.056903547,0.165,,,,,,81,0,81,0,1,,,,,
,,711326,001,2023-07-31_20h43.41.359,arm3_eps,2022.2.5,Win32,29.9940012,60d4613121b754739be92895,64c7fed44a04f777bb1e18ce,64c800bdd4a56374c6c7ef36,right,1,0.75,0.1786,2,0.072340602,0.166,,,,,,82,0,82,0,1,,,,,
,,711326,001,2023-07-31_20h43.41.359,arm3_eps,2022.2.5,Win32,29.9940012,60d4613121b754739be92895,64c7fed44a04f777bb1e18ce,64c800bdd4a56374c6c7ef36,right,1,0.75,0.1786,2,0.097828507,0.165,,,,,,83,0,83,0,1,,,,,
,,711326,001,2023-07-31_20h43.41.359,arm3_eps,2022.2.5,Win32,29.9940012,60d4613121b754739be92895,64c7fed44a04f777bb1e18ce,64c800bdd4a56374c6c7ef36,right,1,0.75,0.1786,2,0.128726402,0.167,,,,,,84,0,84,0,1,,,,,
,,711326,001,2023-07-31_20h43.41.359,arm3_eps,2022.2.5,Win32,29.9940012,60d4613121b754739be92895,64c7fed44a04f777bb1e18ce,64c800bdd4a56374c6c7ef36,right,1,0.75,0.1786,2,0.166241141,0.165,,,,,,85,0,85,0,1,,,,,
,,711326,001,2023-07-31_20h43.41.359,arm3_eps,2022.2.5,Win32,29.9940012,60d4613121b754739be92895,64c7fed44a04f777bb1e18ce,64c800bdd4a56374c6c7ef36,right,1,0.75,0.1786,2,0.160593322,0.182,,,,,,86,0,86,0,1,,,,,
,,711326,001,2023-07-31_20h43.41.359,arm3_eps,2022.2.5,Win32,29.9940012,60d4613121b754739be92895,64c7fed44a04f777bb1e18ce,64c800bdd4a56374c6c7ef36,right,1,0.75,0.1786,2,0.149477501,0.181,,,,,,87,0,87,0,1,,,,,
,,711326,001,2023-07-31_20h43.41.359,arm3_eps,2022.2.5,Win32,29.9940012,60d4613121b754739be92895,64c7fed44a04f777bb1e18ce,64c800bdd4a56374c6c7ef36,right,1,0.75,0.1786,2,0.15232334,0.183,,,,,,88,0,88,0,1,,,,,
,,711326,001,2023-07-31_20h43.41.359,arm3_eps,2022.2.5,Win32,29.9940012,60d4613121b754739be92895,64c7fed44a04f777bb1e18ce,64c800bdd4a56374c6c7ef36,right,1,0.75,0.1786,2,0.184861514,0.216,,,,,,89,0,89,0,1,,,,,
,,711326,001,2023-07-31_20h43.41.359,arm3_eps,2022.2.5,Win32,29.9940012,60d4613121b754739be92895,64c7fed44a04f777bb1e18ce,64c800bdd4a56374c6c7ef36,up,-1,0.75,0.1786,3,0,0.716,,,,,,90,0,90,0,1,,,,,
,,711326,001,2023-07-31_20h43.41.359,arm3_eps,2022.2.5,Win32,29.9940012,60d4613121b754739be92895,64c7fed44a04f777bb1e18ce,64c800bdd4a56374c6c7ef36,right,-1,0.75,0.1786,3,-0.006970702,0.789,,,,,,91,0,91,0,1,,,,,
,,711326,001,2023-07-31_20h43.41.359,arm3_eps,2022.2.5,Win32,29.9940012,60d4613121b754739be92895,64c7fed44a04f777bb1e18ce,64c800bdd4a56374c6c7ef36,right,-1,0.75,0.1786,3,-0.027906332,0.148,,,,,,92,0,92,0,1,,,,,
,,711326,001,2023-07-31_20h43.41.359,arm3_eps,2022.2.5,Win32,29.9940012,60d4613121b754739be92895,64c7fed44a04f777bb1e18ce,64c800bdd4a56374c6c7ef36,right,-1,0.75,0.1786,3,-0.017510186,0.151,,,,,,93,0,93,0,1,,,,,
,,711326,001,2023-07-31_20h43.41.359,arm3_eps,2022.2.5,Win32,29.9940012,60d4613121b754739be92895,64c7fed44a04f777bb1e18ce,64c800bdd4a56374c6c7ef36,right,-1,0.75,0.1786,3,-0.045038731,0.198,,,,,,94,0,94,0,1,,,,,
,,711326,001,2023-07-31_20h43.41.359,arm3_eps,2022.2.5,Win32,29.9940012,60d4613121b754739be92895,64c7fed44a04f777bb1e18ce,64c800bdd4a56374c6c7ef36,right,-1,0.75,0.1786,3,-0.047397082,0.168,,,,,,95,0,95,0,1,,,,,
,,711326,001,2023-07-31_20h43.41.359,arm3_eps,2022.2.5,Win32,29.9940012,60d4613121b754739be92895,64c7fed44a04f777bb1e18ce,64c800bdd4a56374c6c7ef36,right,-1,0.75,0.1786,3,-0.070697554,0.2,,,,,,96,0,96,0,1,,,,,
,,711326,001,2023-07-31_20h43.41.359,arm3_eps,2022.2.5,Win32,29.9940012,60d4613121b754739be92895,64c7fed44a04f777bb1e18ce,64c800bdd4a56374c6c7ef36,right,-1,0.75,0.1786,3,-0.088212858,0.181,,,,,,97,0,97,0,1,,,,,
,,711326,001,2023-07-31_20h43.41.359,arm3_eps,2022.2.5,Win32,29.9940012,60d4613121b754739be92895,64c7fed44a04f777bb1e18ce,64c800bdd4a56374c6c7ef36,right,-1,0.75,0.1786,3,-0.126151223,0.199,,,,,,98,0,98,0,1,,,,,
,,711326,001,2023-07-31_20h43.41.359,arm3_eps,2022.2.5,Win32,29.9940012,60d4613121b754739be92895,64c7fed44a04f777bb1e18ce,64c800bdd4a56374c6c7ef36,right,-1,0.75,0.1786,3,-0.119140643,0.167,,,,,,99,0,99,0,1,,,,,
,,711326,001,2023-07-31_20h43.41.359,arm3_eps,2022.2.5,Win32,29.9940012,60d4613121b754739be92895,64c7fed44a04f777bb1e18ce,64c800bdd4a56374c6c7ef36,right,-1,0.75,0.1786,3,-0.139583731,0.217,,,,,,100,0,100,0,1,,,,,
,,711326,001,2023-07-31_20h43.41.359,arm3_eps,2022.2.5,Win32,29.9940012,60d4613121b754739be92895,64c7fed44a04f777bb1e18ce,64c800bdd4a56374c6c7ef36,right,-1,0.75,0.1786,3,-0.112243162,0.183,,,,,,101,0,101,0,1,,,,,
,,711326,001,2023-07-31_20h43.41.359,arm3_eps,2022.2.5,Win32,29.9940012,60d4613121b754739be92895,64c7fed44a04f777bb1e18ce,64c800bdd4a56374c6c7ef36,right,-1,0.75,0.1786,3,-0.115330242,0.2,,,,,,102,0,102,0,1,,,,,
,,711326,001,2023-07-31_20h43.41.359,arm3_eps,2022.2.5,Win32,29.9940012,60d4613121b754739be92895,64c7fed44a04f777bb1e18ce,64c800bdd4a56374c6c7ef36,down,-1,0.75,0.1786,4,0,1.067,,,,,,103,0,103,0,1,,,,,
,,711326,001,2023-07-31_20h43.41.359,arm3_eps,2022.2.5,Win32,29.9940012,60d4613121b754739be92895,64c7fed44a04f777bb1e18ce,64c800bdd4a56374c6c7ef36,right,-1,0.75,0.1786,4,-0.032934026,0.708,,,,,,104,0,104,0,1,,,,,
,,711326,001,2023-07-31_20h43.41.359,arm3_eps,2022.2.5,Win32,29.9940012,60d4613121b754739be92895,64c7fed44a04f777bb1e18ce,64c800bdd4a56374c6c7ef36,right,-1,0.75,0.1786,4,-0.048885433,0.181,,,,,,105,0,105,0,1,,,,,
,,711326,001,2023-07-31_20h43.41.359,arm3_eps,2022.2.5,Win32,29.9940012,60d4613121b754739be92895,64c7fed44a04f777bb1e18ce,64c800bdd4a56374c6c7ef36,right,-1,0.75,0.1786,4,-0.069805579,0.192,,,,,,106,0,106,0,1,,,,,
,,711326,001,2023-07-31_20h43.41.359,arm3_eps,2022.2.5,Win32,29.9940012,60d4613121b754739be92895,64c7fed44a04f777bb1e18ce,64c800bdd4a56374c6c7ef36,right,-1,0.75,0.1786,4,-0.085927215,0.163,,,,,,107,0,107,0,1,,,,,
,,711326,001,2023-07-31_20h43.41.359,arm3_eps,2022.2.5,Win32,29.9940012,60d4613121b754739be92895,64c7fed44a04f777bb1e18ce,64c800bdd4a56374c6c7ef36,right,-1,0.75,0.1786,4,-0.086017027,0.189,,,,,,108,0,108,0,1,,,,,
,,711326,001,2023-07-31_20h43.41.359,arm3_eps,2022.2.5,Win32,29.9940012,60d4613121b754739be92895,64c7fed44a04f777bb1e18ce,64c800bdd4a56374c6c7ef36,right,-1,0.75,0.1786,4,-0.090725322,0.167,,,,,,109,0,109,0,1,,,,,
,,711326,001,2023-07-31_20h43.41.359,arm3_eps,2022.2.5,Win32,29.9940012,60d4613121b754739be92895,64c7fed44a04f777bb1e18ce,64c800bdd4a56374c6c7ef36,right,-1,0.75,0.1786,4,-0.059100652,0.183,,,,,,110,0,110,0,1,,,,,
,,711326,001,2023-07-31_20h43.41.359,arm3_eps,2022.2.5,Win32,29.9940012,60d4613121b754739be92895,64c7fed44a04f777bb1e18ce,64c800bdd4a56374c6c7ef36,right,-1,0.75,0.1786,4,-0.055314218,0.198,,,,,,111,0,111,0,1,,,,,
,,711326,001,2023-07-31_20h43.41.359,arm3_eps,2022.2.5,Win32,29.9940012,60d4613121b754739be92895,64c7fed44a04f777bb1e18ce,64c800bdd4a56374c6c7ef36,right,-1,0.75,0.1786,4,-0.055987512,0.198,,,,,,112,0,112,0,1,,,,,
,,711326,001,2023-07-31_20h43.41.359,arm3_eps,2022.2.5,Win32,29.9940012,60d4613121b754739be92895,64c7fed44a04f777bb1e18ce,64c800bdd4a56374c6c7ef36,right,-1,0.75,0.1786,4,-0.020013486,0.199,,,,,,113,0,113,0,1,,,,,
,,711326,001,2023-07-31_20h43.41.359,arm3_eps,2022.2.5,Win32,29.9940012,60d4613121b754739be92895,64c7fed44a04f777bb1e18ce,64c800bdd4a56374c6c7ef36,right,-1,0.75,0.1786,4,-0.039330591,0.216,,,,,,114,0,114,0,1,,,,,
,,711326,001,2023-07-31_20h43.41.359,arm3_eps,2022.2.5,Win32,29.9940012,60d4613121b754739be92895,64c7fed44a04f777bb1e18ce,64c800bdd4a56374c6c7ef36,right,-1,0.75,0.1786,4,-0.023096217,0.166,,,,,,115,0,115,0,1,,,,,
,,711326,001,2023-07-31_20h43.41.359,arm3_eps,2022.2.5,Win32,29.9940012,60d4613121b754739be92895,64c7fed44a04f777bb1e18ce,64c800bdd4a56374c6c7ef36,down,-1,0.75,0.1786,5,0,2.249,,,,,,116,0,116,0,1,,,,,
,,711326,001,2023-07-31_20h43.41.359,arm3_eps,2022.2.5,Win32,29.9940012,60d4613121b754739be92895,64c7fed44a04f777bb1e18ce,64c800bdd4a56374c6c7ef36,right,-1,0.75,0.1786,5,-0.010715564,0.804,,,,,,117,0,117,0,1,,,,,
,,711326,001,2023-07-31_20h43.41.359,arm3_eps,2022.2.5,Win32,29.9940012,60d4613121b754739be92895,64c7fed44a04f777bb1e18ce,64c800bdd4a56374c6c7ef36,right,-1,0.75,0.1786,5,-0.01959231,0.199,,,,,,118,0,118,0,1,,,,,
,,711326,001,2023-07-31_20h43.41.359,arm3_eps,2022.2.5,Win32,29.9940012,60d4613121b754739be92895,64c7fed44a04f777bb1e18ce,64c800bdd4a56374c6c7ef36,right,-1,0.75,0.1786,5,-0.045230301,0.15,,,,,,119,0,119,0,1,,,,,
,,711326,001,2023-07-31_20h43.41.359,arm3_eps,2022.2.5,Win32,29.9940012,60d4613121b754739be92895,64c7fed44a04f777bb1e18ce,64c800bdd4a56374c6c7ef36,right,-1,0.75,0.1786,5,-0.017711363,0.165,,,,,,120,0,120,0,1,,,,,
,,711326,001,2023-07-31_20h43.41.359,arm3_eps,2022.2.5,Win32,29.9940012,60d4613121b754739be92895,64c7fed44a04f777bb1e18ce,64c800bdd4a56374c6c7ef36,right,-1,0.75,0.1786,5,-0.022857117,0.184,,,,,,121,0,121,0,1,,,,,
,,711326,001,2023-07-31_20h43.41.359,arm3_eps,2022.2.5,Win32,29.9940012,60d4613121b754739be92895,64c7fed44a04f777bb1e18ce,64c800bdd4a56374c6c7ef36,right,-1,0.75,0.1786,5,-0.047099293,0.154,,,,,,122,0,122,0,1,,,,,
,,711326,001,2023-07-31_20h43.41.359,arm3_eps,2022.2.5,Win32,29.9940012,60d4613121b754739be92895,64c7fed44a04f777bb1e18ce,64c800bdd4a56374c6c7ef36,right,-1,0.75,0.1786,5,-0.060684407,0.181,,,,,,123,0,123,0,1,,,,,
,,711326,001,2023-07-31_20h43.41.359,arm3_eps,2022.2.5,Win32,29.9940012,60d4613121b754739be92895,64c7fed44a04f777bb1e18ce,64c800bdd4a56374c6c7ef36,right,-1,0.75,0.1786,5,-0.057676861,0.182,,,,,,124,0,124,0,1,,,,,
,,711326,001,2023-07-31_20h43.41.359,arm3_eps,2022.2.5,Win32,29.9940012,60d4613121b754739be92895,64c7fed44a04f777bb1e18ce,64c800bdd4a56374c6c7ef36,right,-1,0.75,0.1786,5,-0.080241514,0.182,,,,,,125,0,125,0,1,,,,,
,,711326,001,2023-07-31_20h43.41.359,arm3_eps,2022.2.5,Win32,29.9940012,60d4613121b754739be92895,64c7fed44a04f777bb1e18ce,64c800bdd4a56374c6c7ef36,right,-1,0.75,0.1786,5,-0.090403299,0.183,,,,,,126,0,126,0,1,,,,,
,,711326,001,2023-07-31_20h43.41.359,arm3_eps,2022.2.5,Win32,29.9940012,60d4613121b754739be92895,64c7fed44a04f777bb1e18ce,64c800bdd4a56374c6c7ef36,right,-1,0.75,0.1786,5,-0.088388283,0.203,,,,,,127,0,127,0,1,,,,,
,,711326,001,2023-07-31_20h43.41.359,arm3_eps,2022.2.5,Win32,29.9940012,60d4613121b754739be92895,64c7fed44a04f777bb1e18ce,64c800bdd4a56374c6c7ef36,right,-1,0.75,0.1786,5,-0.084995247,0.168,,,,,,128,0,128,0,1,,,,,
,,711326,001,2023-07-31_20h43.41.359,arm3_eps,2022.2.5,Win32,29.9940012,60d4613121b754739be92895,64c7fed44a04f777bb1e18ce,64c800bdd4a56374c6c7ef36,down,-1,0.75,0.1786,6,0,0.542,,,,,,129,0,129,0,1,,,,,
,,711326,001,2023-07-31_20h43.41.359,arm3_eps,2022.2.5,Win32,29.9940012,60d4613121b754739be92895,64c7fed44a04f777bb1e18ce,64c800bdd4a56374c6c7ef36,right,-1,0.75,0.1786,6,0.02255508,0.671,,,,,,130,0,130,0,1,,,,,
,,711326,001,2023-07-31_20h43.41.359,arm3_eps,2022.2.5,Win32,29.9940012,60d4613121b754739be92895,64c7fed44a04f777bb1e18ce,64c800bdd4a56374c6c7ef36,right,-1,0.75,0.1786,6,0.018975896,0.172,,,,,,131,0,131,0,1,,,,,
,,711326,001,2023-07-31_20h43.41.359,arm3_eps,2022.2.5,Win32,29.9940012,60d4613121b754739be92895,64c7fed44a04f777bb1e18ce,64c800bdd4a56374c6c7ef36,right,-1,0.75,0.1786,6,0.02469444,0.198,,,,,,132,0,132,0,1,,,,,
,,711326,001,2023-07-31_20h43.41.359,arm3_eps,2022.2.5,Win32,29.9940012,60d4613121b754739be92895,64c7fed44a04f777bb1e18ce,64c800bdd4a56374c6c7ef36,right,-1,0.75,0.1786,6,0.004624286,0.166,,,,,,133,0,133,0,1,,,,,
,,711326,001,2023-07-31_20h43.41.359,arm3_eps,2022.2.5,Win32,29.9940012,60d4613121b754739be92895,64c7fed44a04f777bb1e18ce,64c800bdd4a56374c6c7ef36,right,-1,0.75,0.1786,6,0.0042693,0.18,,,,,,134,0,134,0,1,,,,,
,,711326,001,2023-07-31_20h43.41.359,arm3_eps,2022.2.5,Win32,29.9940012,60d4613121b754739be92895,64c7fed44a04f777bb1e18ce,64c800bdd4a56374c6c7ef36,right,-1,0.75,0.1786,6,-0.021099608,0.2,,,,,,135,0,135,0,1,,,,,
,,711326,001,2023-07-31_20h43.41.359,arm3_eps,2022.2.5,Win32,29.9940012,60d4613121b754739be92895,64c7fed44a04f777bb1e18ce,64c800bdd4a56374c6c7ef36,right,-1,0.75,0.1786,6,-0.026999255,0.201,,,,,,136,0,136,0,1,,,,,
,,711326,001,2023-07-31_20h43.41.359,arm3_eps,2022.2.5,Win32,29.9940012,60d4613121b754739be92895,64c7fed44a04f777bb1e18ce,64c800bdd4a56374c6c7ef36,right,-1,0.75,0.1786,6,-0.06158957,0.216,,,,,,137,0,137,0,1,,,,,
,,711326,001,2023-07-31_20h43.41.359,arm3_eps,2022.2.5,Win32,29.9940012,60d4613121b754739be92895,64c7fed44a04f777bb1e18ce,64c800bdd4a56374c6c7ef36,right,-1,0.75,0.1786,6,-0.070943128,0.217,,,,,,138,0,138,0,1,,,,,
,,711326,001,2023-07-31_20h43.41.359,arm3_eps,2022.2.5,Win32,29.9940012,60d4613121b754739be92895,64c7fed44a04f777bb1e18ce,64c800bdd4a56374c6c7ef36,right,-1,0.75,0.1786,6,-0.086672014,0.183,,,,,,139,0,139,0,1,,,,,
,,711326,001,2023-07-31_20h43.41.359,arm3_eps,2022.2.5,Win32,29.9940012,60d4613121b754739be92895,64c7fed44a04f777bb1e18ce,64c800bdd4a56374c6c7ef36,right,-1,0.75,0.1786,6,-0.065969621,0.215,,,,,,140,0,140,0,1,,,,,
,,711326,001,2023-07-31_20h43.41.359,arm3_eps,2022.2.5,Win32,29.9940012,60d4613121b754739be92895,64c7fed44a04f777bb1e18ce,64c800bdd4a56374c6c7ef36,right,-1,0.75,0.1786,6,-0.108024836,0.199,,,,,,141,0,141,0,1,,,,,
,,711326,001,2023-07-31_20h43.41.359,arm3_eps,2022.2.5,Win32,29.9940012,60d4613121b754739be92895,64c7fed44a04f777bb1e18ce,64c800bdd4a56374c6c7ef36,down,-1,0.75,0.1786,6,0,0.604,,,,,,142,0,142,0,1,,,,,
,,711326,001,2023-07-31_20h43.41.359,arm3_eps,2022.2.5,Win32,29.9940012,60d4613121b754739be92895,64c7fed44a04f777bb1e18ce,64c800bdd4a56374c6c7ef36,right,-1,0.75,0.1786,6,-0.012787097,0.954,,,,,,143,0,143,0,1,,,,,
,,711326,001,2023-07-31_20h43.41.359,arm3_eps,2022.2.5,Win32,29.9940012,60d4613121b754739be92895,64c7fed44a04f777bb1e18ce,64c800bdd4a56374c6c7ef36,right,-1,0.75,0.1786,6,-0.022865311,0.198,,,,,,144,0,144,0,1,,,,,
,,711326,001,2023-07-31_20h43.41.359,arm3_eps,2022.2.5,Win32,29.9940012,60d4613121b754739be92895,64c7fed44a04f777bb1e18ce,64c800bdd4a56374c6c7ef36,right,-1,0.75,0.1786,6,-0.030489569,0.181,,,,,,145,0,145,0,1,,,,,
,,711326,001,2023-07-31_20h43.41.359,arm3_eps,2022.2.5,Win32,29.9940012,60d4613121b754739be92895,64c7fed44a04f777bb1e18ce,64c800bdd4a56374c6c7ef36,right,-1,0.75,0.1786,6,-0.048803176,0.181,,,,,,146,0,146,0,1,,,,,
,,711326,001,2023-07-31_20h43.41.359,arm3_eps,2022.2.5,Win32,29.9940012,60d4613121b754739be92895,64c7fed44a04f777bb1e18ce,64c800bdd4a56374c6c7ef36,right,-1,0.75,0.1786,6,-0.052621684,0.198,,,,,,147,0,147,0,1,,,,,
,,711326,001,2023-07-31_20h43.41.359,arm3_eps,2022.2.5,Win32,29.9940012,60d4613121b754739be92895,64c7fed44a04f777bb1e18ce,64c800bdd4a56374c6c7ef36,right,-1,0.75,0.1786,6,-0.056128486,0.183,,,,,,148,0,148,0,1,,,,,
,,711326,001,2023-07-31_20h43.41.359,arm3_eps,2022.2.5,Win32,29.9940012,60d4613121b754739be92895,64c7fed44a04f777bb1e18ce,64c800bdd4a56374c6c7ef36,right,-1,0.75,0.1786,6,-0.069401578,0.2,,,,,,149,0,149,0,1,,,,,
,,711326,001,2023-07-31_20h43.41.359,arm3_eps,2022.2.5,Win32,29.9940012,60d4613121b754739be92895,64c7fed44a04f777bb1e18ce,64c800bdd4a56374c6c7ef36,right,-1,0.75,0.1786,6,-0.090835865,0.175,,,,,,150,0,150,0,1,,,,,
,,711326,001,2023-07-31_20h43.41.359,arm3_eps,2022.2.5,Win32,29.9940012,60d4613121b754739be92895,64c7fed44a04f777bb1e18ce,64c800bdd4a56374c6c7ef36,right,-1,0.75,0.1786,6,-0.088876357,0.198,,,,,,151,0,151,0,1,,,,,
,,711326,001,2023-07-31_20h43.41.359,arm3_eps,2022.2.5,Win32,29.9940012,60d4613121b754739be92895,64c7fed44a04f777bb1e18ce,64c800bdd4a56374c6c7ef36,right,-1,0.75,0.1786,6,-0.108863768,0.233,,,,,,152,0,152,0,1,,,,,
,,711326,001,2023-07-31_20h43.41.359,arm3_eps,2022.2.5,Win32,29.9940012,60d4613121b754739be92895,64c7fed44a04f777bb1e18ce,64c800bdd4a56374c6c7ef36,right,-1,0.75,0.1786,6,-0.126106185,0.2,,,,,,153,0,153,0,1,,,,,
,,711326,001,2023-07-31_20h43.41.359,arm3_eps,2022.2.5,Win32,29.9940012,60d4613121b754739be92895,64c7fed44a04f777bb1e18ce,64c800bdd4a56374c6c7ef36,right,-1,0.75,0.1786,6,-0.135451117,0.199,,,,,,154,0,154,0,1,,,,,
,,711326,001,2023-07-31_20h43.41.359,arm3_eps,2022.2.5,Win32,29.9940012,60d4613121b754739be92895,64c7fed44a04f777bb1e18ce,64c800bdd4a56374c6c7ef36,down,1,0.75,0.1786,7,0,2.115,,,,,,155,0,155,0,1,,,,,
,,711326,001,2023-07-31_20h43.41.359,arm3_eps,2022.2.5,Win32,29.9940012,60d4613121b754739be92895,64c7fed44a04f777bb1e18ce,64c800bdd4a56374c6c7ef36,right,1,0.75,0.1786,7,-0.005019042,0.786,,,,,,156,0,156,0,1,,,,,
,,711326,001,2023-07-31_20h43.41.359,arm3_eps,2022.2.5,Win32,29.9940012,60d4613121b754739be92895,64c7fed44a04f777bb1e18ce,64c800bdd4a56374c6c7ef36,right,1,0.75,0.1786,7,-0.007705509,0.198,,,,,,157,0,157,0,1,,,,,
,,711326,001,2023-07-31_20h43.41.359,arm3_eps,2022.2.5,Win32,29.9940012,60d4613121b754739be92895,64c7fed44a04f777bb1e18ce,64c800bdd4a56374c6c7ef36,right,1,0.75,0.1786,7,-0.016645955,0.152,,,,,,158,0,158,0,1,,,,,
,,711326,001,2023-07-31_20h43.41.359,arm3_eps,2022.2.5,Win32,29.9940012,60d4613121b754739be92895,64c7fed44a04f777bb1e18ce,64c800bdd4a56374c6c7ef36,right,1,0.75,0.1786,7,-0.033606852,0.181,,,,,,159,0,159,0,1,,,,,
,,711326,001,2023-07-31_20h43.41.359,arm3_eps,2022.2.5,Win32,29.9940012,60d4613121b754739be92895,64c7fed44a04f777bb1e18ce,64c800bdd4a56374c6c7ef36,right,1,0.75,0.1786,7,-0.038860191,0.167,,,,,,160,0,160,0,1,,,,,
,,711326,001,2023-07-31_20h43.41.359,arm3_eps,2022.2.5,Win32,29.9940012,60d4613121b754739be92895,64c7fed44a04f777bb1e18ce,64c800bdd4a56374c6c7ef36,right,1,0.75,0.1786,7,-0.072396963,0.166,,,,,,161,0,161,0,1,,,,,
,,711326,001,2023-07-31_20h43.41.359,arm3_eps,2022.2.5,Win32,29.9940012,60d4613121b754739be92895,64c7fed44a04f777bb1e18ce,64c800bdd4a56374c6c7ef36,right,1,0.75,0.1786,7,-0.093708656,0.185,,,,,,162,0,162,0,1,,,,,
,,711326,001,2023-07-31_20h43.41.359,arm3_eps,2022.2.5,Win32,29.9940012,60d4613121b754739be92895,64c7fed44a04f777bb1e18ce,64c800bdd4a56374c6c7ef36,right,1,0.75,0.1786,7,-0.059371791,0.214,,,,,,163,0,163,0,1,,,,,
,,711326,001,2023-07-31_20h43.41.359,arm3_eps,2022.2.5,Win32,29.9940012,60d4613121b754739be92895,64c7fed44a04f777bb1e18ce,64c800bdd4a56374c6c7ef36,right,1,0.75,0.1786,7,-0.04004774,0.165,,,,,,164,0,164,0,1,,,,,
,,711326,001,2023-07-31_20h43.41.359,arm3_eps,2022.2.5,Win32,29.9940012,60d4613121b754739be92895,64c7fed44a04f777bb1e18ce,64c800bdd4a56374c6c7ef36,right,1,0.75,0.1786,7,-0.060084433,0.166,,,,,,165,0,165,0,1,,,,,
,,711326,001,2023-07-31_20h43.41.359,arm3_eps,2022.2.5,Win32,29.9940012,60d4613121b754739be92895,64c7fed44a04f777bb1e18ce,64c800bdd4a56374c6c7ef36,right,1,0.75,0.1786,7,-0.072709947,0.199,,,,,,166,0,166,0,1,,,,,
,,711326,001,2023-07-31_20h43.41.359,arm3_eps,2022.2.5,Win32,29.9940012,60d4613121b754739be92895,64c7fed44a04f777bb1e18ce,64c800bdd4a56374c6c7ef36,right,1,0.75,0.1786,7,-0.051106171,0.208,,,,,,167,0,167,0,1,,,,,
,,711326,001,2023-07-31_20h43.41.359,arm3_eps,2022.2.5,Win32,29.9940012,60d4613121b754739be92895,64c7fed44a04f777bb1e18ce,64c800bdd4a56374c6c7ef36,down,1,0.75,0.1786,6,0,0.967,,,,,,168,0,168,0,1,,,,,
,,711326,001,2023-07-31_20h43.41.359,arm3_eps,2022.2.5,Win32,29.9940012,60d4613121b754739be92895,64c7fed44a04f777bb1e18ce,64c800bdd4a56374c6c7ef36,up,-1,0.75,0.1786,7,0,2.189,,,,,,169,0,169,0,1,,,,,
,,711326,001,2023-07-31_20h43.41.359,arm3_eps,2022.2.5,Win32,29.9940012,60d4613121b754739be92895,64c7fed44a04f777bb1e18ce,64c800bdd4a56374c6c7ef36,right,-1,0.75,0.1786,7,-0.006905625,2.262,,,,,,170,0,170,0,1,,,,,
,,711326,001,2023-07-31_20h43.41.359,arm3_eps,2022.2.5,Win32,29.9940012,60d4613121b754739be92895,64c7fed44a04f777bb1e18ce,64c800bdd4a56374c6c7ef36,right,-1,0.75,0.1786,7,0.00779563,0.264,,,,,,171,0,171,0,1,,,,,
,,711326,001,2023-07-31_20h43.41.359,arm3_eps,2022.2.5,Win32,29.9940012,60d4613121b754739be92895,64c7fed44a04f777bb1e18ce,64c800bdd4a56374c6c7ef36,right,-1,0.75,0.1786,7,-0.013643502,0.215,,,,,,172,0,172,0,1,,,,,
,,711326,001,2023-07-31_20h43.41.359,arm3_eps,2022.2.5,Win32,29.9940012,60d4613121b754739be92895,64c7fed44a04f777bb1e18ce,64c800bdd4a56374c6c7ef36,right,-1,0.75,0.1786,7,-0.087645363,0.199,,,,,,173,0,173,0,1,,,,,
,,711326,001,2023-07-31_20h43.41.359,arm3_eps,2022.2.5,Win32,29.9940012,60d4613121b754739be92895,64c7fed44a04f777bb1e18ce,64c800bdd4a56374c6c7ef36,right,-1,0.75,0.1786,7,-0.091654829,0.214,,,,,,174,0,174,0,1,,,,,
,,711326,001,2023-07-31_20h43.41.359,arm3_eps,2022.2.5,Win32,29.9940012,60d4613121b754739be92895,64c7fed44a04f777bb1e18ce,64c800bdd4a56374c6c7ef36,right,-1,0.75,0.1786,7,-0.129184751,0.333,,,,,,175,0,175,0,1,,,,,
,,711326,001,2023-07-31_20h43.41.359,arm3_eps,2022.2.5,Win32,29.9940012,60d4613121b754739be92895,64c7fed44a04f777bb1e18ce,64c800bdd4a56374c6c7ef36,right,-1,0.75,0.1786,7,-0.152036808,0.331,,,,,,176,0,176,0,1,,,,,
,,711326,001,2023-07-31_20h43.41.359,arm3_eps,2022.2.5,Win32,29.9940012,60d4613121b754739be92895,64c7fed44a04f777bb1e18ce,64c800bdd4a56374c6c7ef36,right,-1,0.75,0.1786,7,-0.144159965,0.281,,,,,,177,0,177,0,1,,,,,
,,711326,001,2023-07-31_20h43.41.359,arm3_eps,2022.2.5,Win32,29.9940012,60d4613121b754739be92895,64c7fed44a04f777bb1e18ce,64c800bdd4a56374c6c7ef36,right,-1,0.75,0.1786,7,-0.164193033,1.865,,,,,,178,0,178,0,1,,,,,
,,711326,001,2023-07-31_20h43.41.359,arm3_eps,2022.2.5,Win32,29.9940012,60d4613121b754739be92895,64c7fed44a04f777bb1e18ce,64c800bdd4a56374c6c7ef36,right,-1,0.75,0.1786,7,-0.168448802,0.234,,,,,,179,0,179,0,1,,,,,
,,711326,001,2023-07-31_20h43.41.359,arm3_eps,2022.2.5,Win32,29.9940012,60d4613121b754739be92895,64c7fed44a04f777bb1e18ce,64c800bdd4a56374c6c7ef36,right,-1,0.75,0.1786,7,-0.204564594,0.3,,,,,,180,0,180,0,1,,,,,
,,711326,001,2023-07-31_20h43.41.359,arm3_eps,2022.2.5,Win32,29.9940012,60d4613121b754739be92895,64c7fed44a04f777bb1e18ce,64c800bdd4a56374c6c7ef36,right,-1,0.75,0.1786,7,-0.226550791,0.514,,,,,,181,0,181,0,1,,,,,
,,711326,001,2023-07-31_20h43.41.359,arm3_eps,2022.2.5,Win32,29.9940012,60d4613121b754739be92895,64c7fed44a04f777bb1e18ce,64c800bdd4a56374c6c7ef36,down,-1,0.75,0.1786,7,0,1.365,,,,,,182,0,182,0,1,,,,,
,,711326,001,2023-07-31_20h43.41.359,arm3_eps,2022.2.5,Win32,29.9940012,60d4613121b754739be92895,64c7fed44a04f777bb1e18ce,64c800bdd4a56374c6c7ef36,right,-1,0.75,0.1786,7,-0.019766485,1.186,,,,,,183,0,183,0,1,,,,,
,,711326,001,2023-07-31_20h43.41.359,arm3_eps,2022.2.5,Win32,29.9940012,60d4613121b754739be92895,64c7fed44a04f777bb1e18ce,64c800bdd4a56374c6c7ef36,right,-1,0.75,0.1786,7,-0.03015928,0.199,,,,,,184,0,184,0,1,,,,,
,,711326,001,2023-07-31_20h43.41.359,arm3_eps,2022.2.5,Win32,29.9940012,60d4613121b754739be92895,64c7fed44a04f777bb1e18ce,64c800bdd4a56374c6c7ef36,right,-1,0.75,0.1786,7,-0.039313777,0.165,,,,,,185,0,185,0,1,,,,,
,,711326,001,2023-07-31_20h43.41.359,arm3_eps,2022.2.5,Win32,29.9940012,60d4613121b754739be92895,64c7fed44a04f777bb1e18ce,64c800bdd4a56374c6c7ef36,down,-1,0.75,0.1786,8,0,1.733,,,,,,186,0,186,0,1,,,,,
,,711326,001,2023-07-31_20h43.41.359,arm3_eps,2022.2.5,Win32,29.9940012,60d4613121b754739be92895,64c7fed44a04f777bb1e18ce,64c800bdd4a56374c6c7ef36,right,-1,0.75,0.1786,8,0.002837684,1.189,,,,,,187,0,187,0,1,,,,,
,,711326,001,2023-07-31_20h43.41.359,arm3_eps,2022.2.5,Win32,29.9940012,60d4613121b754739be92895,64c7fed44a04f777bb1e18ce,64c800bdd4a56374c6c7ef36,down,1,0.75,0.1786,9,0,1.734,,,,,,188,0,188,0,1,,,,,
,,711326,001,2023-07-31_20h43.41.359,arm3_eps,2022.2.5,Win32,29.9940012,60d4613121b754739be92895,64c7fed44a04f777bb1e18ce,64c800bdd4a56374c6c7ef36,right,1,0.75,0.1786,9,-0.011292816,1.689,,,,,,189,0,189,0,1,,,,,
,,711326,001,2023-07-31_20h43.41.359,arm3_eps,2022.2.5,Win32,29.9940012,60d4613121b754739be92895,64c7fed44a04f777bb1e18ce,64c800bdd4a56374c6c7ef36,right,1,0.75,0.1786,9,-0.006292978,0.484,,,,,,190,0,190,0,1,,,,,
,,711326,001,2023-07-31_20h43.41.359,arm3_eps,2022.2.5,Win32,29.9940012,60d4613121b754739be92895,64c7fed44a04f777bb1e18ce,64c800bdd4a56374c6c7ef36,right,1,0.75,0.1786,9,-0.016214464,0.399,,,,,,191,0,191,0,1,,,,,
,,711326,001,2023-07-31_20h43.41.359,arm3_eps,2022.2.5,Win32,29.9940012,60d4613121b754739be92895,64c7fed44a04f777bb1e18ce,64c800bdd4a56374c6c7ef36,right,1,0.75,0.1786,9,0.009194306,0.549,,,,,,192,0,192,0,1,,,,,
,,711326,001,2023-07-31_20h43.41.359,arm3_eps,2022.2.5,Win32,29.9940012,60d4613121b754739be92895,64c7fed44a04f777bb1e18ce,64c800bdd4a56374c6c7ef36,right,1,0.75,0.1786,9,-0.004329672,0.382,,,,,,193,0,193,0,1,,,,,
,,711326,001,2023-07-31_20h43.41.359,arm3_eps,2022.2.5,Win32,29.9940012,60d4613121b754739be92895,64c7fed44a04f777bb1e18ce,64c800bdd4a56374c6c7ef36,right,1,0.75,0.1786,9,0.008484636,0.382,,,,,,194,0,194,0,1,,,,,
,,711326,001,2023-07-31_20h43.41.359,arm3_eps,2022.2.5,Win32,29.9940012,60d4613121b754739be92895,64c7fed44a04f777bb1e18ce,64c800bdd4a56374c6c7ef36,right,1,0.75,0.1786,9,0.030940859,0.934,,,,,,195,0,195,0,1,,,,,
,,711326,001,2023-07-31_20h43.41.359,arm3_eps,2022.2.5,Win32,29.9940012,60d4613121b754739be92895,64c7fed44a04f777bb1e18ce,64c800bdd4a56374c6c7ef36,up,1,0.75,0.1786,10,0,0.732,,,,,,196,0,196,0,1,,,,,
,,711326,001,2023-07-31_20h43.41.359,arm3_eps,2022.2.5,Win32,29.9940012,60d4613121b754739be92895,64c7fed44a04f777bb1e18ce,64c800bdd4a56374c6c7ef36,right,1,0.75,0.1786,10,-0.016469043,1.008,,,,,,197,0,197,0,1,,,,,
,,711326,001,2023-07-31_20h43.41.359,arm3_eps,2022.2.5,Win32,29.9940012,60d4613121b754739be92895,64c7fed44a04f777bb1e18ce,64c800bdd4a56374c6c7ef36,right,1,0.75,0.1786,10,0.018770148,0.316,,,,,,198,0,198,0,1,,,,,
,,711326,001,2023-07-31_20h43.41.359,arm3_eps,2022.2.5,Win32,29.9940012,60d4613121b754739be92895,64c7fed44a04f777bb1e18ce,64c800bdd4a56374c6c7ef36,right,1,0.75,0.1786,10,0.003105944,0.233,,,,,,199,0,199,0,1,,,,,
,,711326,001,2023-07-31_20h43.41.359,arm3_eps,2022.2.5,Win32,29.9940012,60d4613121b754739be92895,64c7fed44a04f777bb1e18ce,64c800bdd4a56374c6c7ef36,right,1,0.75,0.1786,10,-0.006631093,0.362,,,,,,200,0,200,0,1,,,,,
,,711326,001,2023-07-31_20h43.41.359,arm3_eps,2022.2.5,Win32,29.9940012,60d4613121b754739be92895,64c7fed44a04f777bb1e18ce,64c800bdd4a56374c6c7ef36,right,1,0.75,0.1786,10,0.002837834,0.399,,,,,,201,0,201,0,1,,,,,
,,711326,001,2023-07-31_20h43.41.359,arm3_eps,2022.2.5,Win32,29.9940012,60d4613121b754739be92895,64c7fed44a04f777bb1e18ce,64c800bdd4a56374c6c7ef36,right,1,0.75,0.1786,10,0.007400325,0.366,,,,,,202,0,202,0,1,,,,,
,,711326,001,2023-07-31_20h43.41.359,arm3_eps,2022.2.5,Win32,29.9940012,60d4613121b754739be92895,64c7fed44a04f777bb1e18ce,64c800bdd4a56374c6c7ef36,right,1,0.75,0.1786,10,-0.009554321,0.684,,,,,,203,0,203,0,1,,,,,
,,711326,001,2023-07-31_20h43.41.359,arm3_eps,2022.2.5,Win32,29.9940012,60d4613121b754739be92895,64c7fed44a04f777bb1e18ce,64c800bdd4a56374c6c7ef36,right,1,0.75,0.1786,10,0.00488684,0.666,,,,,,204,0,204,0,1,,,,,
,,711326,001,2023-07-31_20h43.41.359,arm3_eps,2022.2.5,Win32,29.9940012,60d4613121b754739be92895,64c7fed44a04f777bb1e18ce,64c800bdd4a56374c6c7ef36,right,1,0.75,0.1786,10,0.010756272,0.365,,,,,,205,0,205,0,1,,,,,
,,711326,001,2023-07-31_20h43.41.359,arm3_eps,2022.2.5,Win32,29.9940012,60d4613121b754739be92895,64c7fed44a04f777bb1e18ce,64c800bdd4a56374c6c7ef36,up,1,0.75,0.1786,11,0,1.4,,,,,,206,0,206,0,1,,,,,
,,711326,001,2023-07-31_20h43.41.359,arm3_eps,2022.2.5,Win32,29.9940012,60d4613121b754739be92895,64c7fed44a04f777bb1e18ce,64c800bdd4a56374c6c7ef36,right,1,0.75,0.1786,11,-0.007371571,0.841,,,,,,207,0,207,0,1,,,,,
,,711326,001,2023-07-31_20h43.41.359,arm3_eps,2022.2.5,Win32,29.9940012,60d4613121b754739be92895,64c7fed44a04f777bb1e18ce,64c800bdd4a56374c6c7ef36,right,1,0.75,0.1786,11,-0.006470315,0.232,,,,,,208,0,208,0,1,,,,,
,,711326,001,2023-07-31_20h43.41.359,arm3_eps,2022.2.5,Win32,29.9940012,60d4613121b754739be92895,64c7fed44a04f777bb1e18ce,64c800bdd4a56374c6c7ef36,right,1,0.75,0.1786,11,0.017900013,0.217,,,,,,209,0,209,0,1,,,,,
,,711326,001,2023-07-31_20h43.41.359,arm3_eps,2022.2.5,Win32,29.9940012,60d4613121b754739be92895,64c7fed44a04f777bb1e18ce,64c800bdd4a56374c6c7ef36,right,1,0.75,0.1786,11,0.006898283,0.266,,,,,,210,0,210,0,1,,,,,
,,711326,001,2023-07-31_20h43.41.359,arm3_eps,2022.2.5,Win32,29.9940012,60d4613121b754739be92895,64c7fed44a04f777bb1e18ce,64c800bdd4a56374c6c7ef36,right,1,0.75,0.1786,11,0.038170527,0.283,,,,,,211,0,211,0,1,,,,,
,,711326,001,2023-07-31_20h43.41.359,arm3_eps,2022.2.5,Win32,29.9940012,60d4613121b754739be92895,64c7fed44a04f777bb1e18ce,64c800bdd4a56374c6c7ef36,right,1,0.75,0.1786,11,0.043473618,0.35,,,,,,212,0,212,0,1,,,,,
,,711326,001,2023-07-31_20h43.41.359,arm3_eps,2022.2.5,Win32,29.9940012,60d4613121b754739be92895,64c7fed44a04f777bb1e18ce,64c800bdd4a56374c6c7ef36,right,1,0.75,0.1786,11,0.046838297,0.353,,,,,,213,0,213,0,1,,,,,
,,711326,001,2023-07-31_20h43.41.359,arm3_eps,2022.2.5,Win32,29.9940012,60d4613121b754739be92895,64c7fed44a04f777bb1e18ce,64c800bdd4a56374c6c7ef36,right,1,0.75,0.1786,11,0.026876702,0.736,,,,,,214,0,214,0,1,,,,,
,,711326,001,2023-07-31_20h43.41.359,arm3_eps,2022.2.5,Win32,29.9940012,60d4613121b754739be92895,64c7fed44a04f777bb1e18ce,64c800bdd4a56374c6c7ef36,right,1,0.75,0.1786,11,0.038190531,0.673,,,,,,215,0,215,0,1,,,,,
,,711326,001,2023-07-31_20h43.41.359,arm3_eps,2022.2.5,Win32,29.9940012,60d4613121b754739be92895,64c7fed44a04f777bb1e18ce,64c800bdd4a56374c6c7ef36,up,1,0.75,0.1786,11,0,0.732,,,,,,216,0,216,0,1,,,,,
,,711326,001,2023-07-31_20h43.41.359,arm3_eps,2022.2.5,Win32,29.9940012,60d4613121b754739be92895,64c7fed44a04f777bb1e18ce,64c800bdd4a56374c6c7ef36,right,1,0.75,0.1786,11,-0.016418156,1.218,,,,,,217,0,217,0,1,,,,,
,,711326,001,2023-07-31_20h43.41.359,arm3_eps,2022.2.5,Win32,29.9940012,60d4613121b754739be92895,64c7fed44a04f777bb1e18ce,64c800bdd4a56374c6c7ef36,right,1,0.75,0.1786,11,0.001660901,0.232,,,,,,218,0,218,0,1,,,,,
,,711326,001,2023-07-31_20h43.41.359,arm3_eps,2022.2.5,Win32,29.9940012,60d4613121b754739be92895,64c7fed44a04f777bb1e18ce,64c800bdd4a56374c6c7ef36,right,1,0.75,0.1786,11,0.024790017,0.255,,,,,,219,0,219,0,1,,,,,
,,711326,001,2023-07-31_20h43.41.359,arm3_eps,2022.2.5,Win32,29.9940012,60d4613121b754739be92895,64c7fed44a04f777bb1e18ce,64c800bdd4a56374c6c7ef36,right,1,0.75,0.1786,11,0.034446732,0.75,,,,,,220,0,220,0,1,,,,,
,,711326,001,2023-07-31_20h43.41.359,arm3_eps,2022.2.5,Win32,29.9940012,60d4613121b754739be92895,64c7fed44a04f777bb1e18ce,64c800bdd4a56374c6c7ef36,right,1,0.75,0.1786,11,0.064350985,0.266,,,,,,221,0,221,0,1,,,,,
,,711326,001,2023-07-31_20h43.41.359,arm3_eps,2022.2.5,Win32,29.9940012,60d4613121b754739be92895,64c7fed44a04f777bb1e18ce,64c800bdd4a56374c6c7ef36,up,1,0.75,0.1786,11,0,0.918,,,,,,222,0,222,0,1,,,,,
,,711326,001,2023-07-31_20h43.41.359,arm3_eps,2022.2.5,Win32,29.9940012,60d4613121b754739be92895,64c7fed44a04f777bb1e18ce,64c800bdd4a56374c6c7ef36,right,1,0.75,0.1786,11,0.01173652,0.903,,,,,,223,0,223,0,1,,,,,
,,711326,001,2023-07-31_20h43.41.359,arm3_eps,2022.2.5,Win32,29.9940012,60d4613121b754739be92895,64c7fed44a04f777bb1e18ce,64c800bdd4a56374c6c7ef36,right,1,0.75,0.1786,11,0.020392501,0.182,,,,,,224,0,224,0,1,,,,,
,,711326,001,2023-07-31_20h43.41.359,arm3_eps,2022.2.5,Win32,29.9940012,60d4613121b754739be92895,64c7fed44a04f777bb1e18ce,64c800bdd4a56374c6c7ef36,right,1,0.75,0.1786,11,0.041623986,0.215,,,,,,225,0,225,0,1,,,,,
,,711326,001,2023-07-31_20h43.41.359,arm3_eps,2022.2.5,Win32,29.9940012,60d4613121b754739be92895,64c7fed44a04f777bb1e18ce,64c800bdd4a56374c6c7ef36,right,1,0.75,0.1786,11,0.03550191,0.182,,,,,,226,0,226,0,1,,,,,
,,711326,001,2023-07-31_20h43.41.359,arm3_eps,2022.2.5,Win32,29.9940012,60d4613121b754739be92895,64c7fed44a04f777bb1e18ce,64c800bdd4a56374c6c7ef36,right,1,0.75,0.1786,11,0.060582008,0.349,,,,,,227,0,227,0,1,,,,,
,,711326,001,2023-07-31_20h43.41.359,arm3_eps,2022.2.5,Win32,29.9940012,60d4613121b754739be92895,64c7fed44a04f777bb1e18ce,64c800bdd4a56374c6c7ef36,right,1,0.75,0.1786,11,0.048049897,0.435,,,,,,228,0,228,0,1,,,,,
,,711326,001,2023-07-31_20h43.41.359,arm3_eps,2022.2.5,Win32,29.9940012,60d4613121b754739be92895,64c7fed44a04f777bb1e18ce,64c800bdd4a56374c6c7ef36,right,1,0.75,0.1786,11,0.036826158,1.13,,,,,,229,0,229,0,1,,,,,
,,711326,001,2023-07-31_20h43.41.359,arm3_eps,2022.2.5,Win32,29.9940012,60d4613121b754739be92895,64c7fed44a04f777bb1e18ce,64c800bdd4a56374c6c7ef36,up,1,0.75,0.1786,12,0,1.099,,,,,,230,0,230,0,1,,,,,
,,711326,001,2023-07-31_20h43.41.359,arm3_eps,2022.2.5,Win32,29.9940012,60d4613121b754739be92895,64c7fed44a04f777bb1e18ce,64c800bdd4a56374c6c7ef36,right,1,0.75,0.1786,12,0.014910021,1.14,,,,,,231,0,231,0,1,,,,,
,,711326,001,2023-07-31_20h43.41.359,arm3_eps,2022.2.5,Win32,29.9940012,60d4613121b754739be92895,64c7fed44a04f777bb1e18ce,64c800bdd4a56374c6c7ef36,right,1,0.75,0.1786,12,0.024190266,0.433,,,,,,232,0,232,0,1,,,,,
,,711326,001,2023-07-31_20h43.41.359,arm3_eps,2022.2.5,Win32,29.9940012,60d4613121b754739be92895,64c7fed44a04f777bb1e18ce,64c800bdd4a56374c6c7ef36,right,1,0.75,0.1786,12,0.032422321,0.399,,,,,,233,0,233,0,1,,,,,
,,711326,001,2023-07-31_20h43.41.359,arm3_eps,2022.2.5,Win32,29.9940012,60d4613121b754739be92895,64c7fed44a04f777bb1e18ce,64c800bdd4a56374c6c7ef36,right,1,0.75,0.1786,12,0.054047498,0.334,,,,,,234,0,234,0,1,,,,,
,,711326,001,2023-07-31_20h43.41.359,arm3_eps,2022.2.5,Win32,29.9940012,60d4613121b754739be92895,64c7fed44a04f777bb1e18ce,64c800bdd4a56374c6c7ef36,up,-1,0.75,0.1786,13,0,0.616,,,,,,235,0,235,0,1,,,,,
,,711326,001,2023-07-31_20h43.41.359,arm3_eps,2022.2.5,Win32,29.9940012,60d4613121b754739be92895,64c7fed44a04f777bb1e18ce,64c800bdd4a56374c6c7ef36,right,-1,0.75,0.1786,13,-0.024976236,0.94,,,,,,236,0,236,0,1,,,,,
,,711326,001,2023-07-31_20h43.41.359,arm3_eps,2022.2.5,Win32,29.9940012,60d4613121b754739be92895,64c7fed44a04f777bb1e18ce,64c800bdd4a56374c6c7ef36,right,-1,0.75,0.1786,13,-0.026695864,0.299,,,,,,237,0,237,0,1,,,,,
,,711326,001,2023-07-31_20h43.41.359,arm3_eps,2022.2.5,Win32,29.9940012,60d4613121b754739be92895,64c7fed44a04f777bb1e18ce,64c800bdd4a56374c6c7ef36,right,-1,0.75,0.1786,13,-0.0093989,0.241,,,,,,238,0,238,0,1,,,,,
,,711326,001,2023-07-31_20h43.41.359,arm3_eps,2022.2.5,Win32,29.9940012,60d4613121b754739be92895,64c7fed44a04f777bb1e18ce,64c800bdd4a56374c6c7ef36,right,-1,0.75,0.1786,13,-0.023073796,1.071,,,,,,239,0,239,0,1,,,,,
,,711326,001,2023-07-31_20h43.41.359,arm3_eps,2022.2.5,Win32,29.9940012,60d4613121b754739be92895,64c7fed44a04f777bb1e18ce,64c800bdd4a56374c6c7ef36,right,-1,0.75,0.1786,13,-0.078849798,0.302,,,,,,240,0,240,0,1,,,,,
,,711326,001,2023-07-31_20h43.41.359,arm3_eps,2022.2.5,Win32,29.9940012,60d4613121b754739be92895,64c7fed44a04f777bb1e18ce,64c800bdd4a56374c6c7ef36,down,-1,0.75,0.1786,13,0,0.841,,,,,,241,0,241,0,1,,,,,
,,711326,001,2023-07-31_20h43.41.359,arm3_eps,2022.2.5,Win32,29.9940012,60d4613121b754739be92895,64c7fed44a04f777bb1e18ce,64c800bdd4a56374c6c7ef36,right,-1,0.75,0.1786,13,-0.00617458,1.332,,,,,,242,0,242,0,1,,,,,
,,711326,001,2023-07-31_20h43.41.359,arm3_eps,2022.2.5,Win32,29.9940012,60d4613121b754739be92895,64c7fed44a04f777bb1e18ce,64c800bdd4a56374c6c7ef36,right,-1,0.75,0.1786,13,-0.030998854,0.35,,,,,,243,0,243,0,1,,,,,
,,711326,001,2023-07-31_20h43.41.359,arm3_eps,2022.2.5,Win32,29.9940012,60d4613121b754739be92895,64c7fed44a04f777bb1e18ce,64c800bdd4a56374c6c7ef36,right,-1,0.75,0.1786,13,-0.05790643,0.3,,,,,,244,0,244,0,1,,,,,
,,711326,001,2023-07-31_20h43.41.359,arm3_eps,2022.2.5,Win32,29.9940012,60d4613121b754739be92895,64c7fed44a04f777bb1e18ce,64c800bdd4a56374c6c7ef36,right,-1,0.75,0.1786,13,-0.065910683,0.366,,,,,,245,0,245,0,1,,,,,
,,711326,001,2023-07-31_20h43.41.359,arm3_eps,2022.2.5,Win32,29.9940012,60d4613121b754739be92895,64c7fed44a04f777bb1e18ce,64c800bdd4a56374c6c7ef36,right,-1,0.75,0.1786,13,-0.081172468,0.399,,,,,,246,0,246,0,1,,,,,
,,711326,001,2023-07-31_20h43.41.359,arm3_eps,2022.2.5,Win32,29.9940012,60d4613121b754739be92895,64c7fed44a04f777bb1e18ce,64c800bdd4a56374c6c7ef36,down,1,0.75,0.1786,14,0,1,,,,,,247,0,247,0,1,,,,,
,,711326,001,2023-07-31_20h43.41.359,arm3_eps,2022.2.5,Win32,29.9940012,60d4613121b754739be92895,64c7fed44a04f777bb1e18ce,64c800bdd4a56374c6c7ef36,right,1,0.75,0.1786,14,0.010211159,1.023,,,,,,248,0,248,0,1,,,,,
,,711326,001,2023-07-31_20h43.41.359,arm3_eps,2022.2.5,Win32,29.9940012,60d4613121b754739be92895,64c7fed44a04f777bb1e18ce,64c800bdd4a56374c6c7ef36,right,1,0.75,0.1786,14,0.017972335,0.232,,,,,,249,0,249,0,1,,,,,
,,711326,001,2023-07-31_20h43.41.359,arm3_eps,2022.2.5,Win32,29.9940012,60d4613121b754739be92895,64c7fed44a04f777bb1e18ce,64c800bdd4a56374c6c7ef36,right,1,0.75,0.1786,14,0.003807254,0.198,,,,,,250,0,250,0,1,,,,,
,,711326,001,2023-07-31_20h43.41.359,arm3_eps,2022.2.5,Win32,29.9940012,60d4613121b754739be92895,64c7fed44a04f777bb1e18ce,64c800bdd4a56374c6c7ef36,right,1,0.75,0.1786,14,0.009472871,0.165,,,,,,251,0,251,0,1,,,,,
,,711326,001,2023-07-31_20h43.41.359,arm3_eps,2022.2.5,Win32,29.9940012,60d4613121b754739be92895,64c7fed44a04f777bb1e18ce,64c800bdd4a56374c6c7ef36,right,1,0.75,0.1786,14,0.045792,0.183,,,,,,252,0,252,0,1,,,,,
,,711326,001,2023-07-31_20h43.41.359,arm3_eps,2022.2.5,Win32,29.9940012,60d4613121b754739be92895,64c7fed44a04f777bb1e18ce,64c800bdd4a56374c6c7ef36,right,1,0.75,0.1786,14,0.026853964,0.518,,,,,,253,0,253,0,1,,,,,
,,711326,001,2023-07-31_20h43.41.359,arm3_eps,2022.2.5,Win32,29.9940012,60d4613121b754739be92895,64c7fed44a04f777bb1e18ce,64c800bdd4a56374c6c7ef36,right,1,0.75,0.1786,14,0.023305345,0.349,,,,,,254,0,254,0,1,,,,,
,,711326,001,2023-07-31_20h43.41.359,arm3_eps,2022.2.5,Win32,29.9940012,60d4613121b754739be92895,64c7fed44a04f777bb1e18ce,64c800bdd4a56374c6c7ef36,up,1,0.75,0.1786,15,0,0.714,,,,,,255,0,255,0,1,,,,,
,,711326,001,2023-07-31_20h43.41.359,arm3_eps,2022.2.5,Win32,29.9940012,60d4613121b754739be92895,64c7fed44a04f777bb1e18ce,64c800bdd4a56374c6c7ef36,right,1,0.75,0.1786,15,0.008363854,0.889,,,,,,256,0,256,0,1,,,,,
,,711326,001,2023-07-31_20h43.41.359,arm3_eps,2022.2.5,Win32,29.9940012,60d4613121b754739be92895,64c7fed44a04f777bb1e18ce,64c800bdd4a56374c6c7ef36,right,1,0.75,0.1786,15,0.0443442,0.214,,,,,,257,0,257,0,1,,,,,
,,711326,001,2023-07-31_20h43.41.359,arm3_eps,2022.2.5,Win32,29.9940012,60d4613121b754739be92895,64c7fed44a04f777bb1e18ce,64c800bdd4a56374c6c7ef36,right,1,0.75,0.1786,15,0.080283378,0.284,,,,,,258,0,258,0,1,,,,,
,,711326,001,2023-07-31_20h43.41.359,arm3_eps,2022.2.5,Win32,29.9940012,60d4613121b754739be92895,64c7fed44a04f777bb1e18ce,64c800bdd4a56374c6c7ef36,up,1,0.75,0.1786,15,0,0.617,,,,,,259,0,259,0,1,,,,,
