space_bar.keys,space_bar.rt,participant,session,date,expName,psychopyVersion,OS,frameRate,PROLIFIC_PID,STUDY_ID,SESSION_ID,resp.keys,state,q_prob,eps_prob,score,price,resp.rt,train.thisRepN,train.thisTrialN,train.thisN,train.thisIndex,train.ran,steps.thisRepN,steps.thisTrialN,steps.thisN,steps.thisIndex,steps.ran,blocks.thisRepN,blocks.thisTrialN,blocks.thisN,blocks.thisIndex,blocks.ran
space,5.3644,810631,001,2023-07-31_12h45.28.405,arm3_eps,2022.2.5,Win32,119.8465964,5ee95917bdb5522f9ee95e4f,64c7fed44a04f777bb1e18ce,64c800c48c6a43ce13ca8217,,,,,,,,,,,,,,,,,,,,,,
space,3.8999,810631,001,2023-07-31_12h45.28.405,arm3_eps,2022.2.5,Win32,119.8465964,5ee95917bdb5522f9ee95e4f,64c7fed44a04f777bb1e18ce,64c800c48c6a43ce13ca8217,,,,,,,,,,,,,,,,,,,,,,
space,23.7606,810631,001,2023-07-31_12h45.28.405,arm3_eps,2022.2.5,Win32,119.8465964,5ee95917bdb5522f9ee95e4f,64c7fed44a04f777bb1e18ce,64c800c48c6a43ce13ca8217,,,,,,,,,,,,,,,,,,,,,,
space,16.0682,810631,001,2023-07-31_12h45.28.405,arm3_eps,2022.2.5,Win32,119.8465964,5ee95917bdb5522f9ee95e4f,64c7fed44a04f777bb1e18ce,64c800c48c6a43ce13ca8217,,,,,,,,,,,,,,,,,,,,,,
space,61.6836,810631,001,2023-07-31_12h45.28.405,arm3_eps,2022.2.5,Win32,119.8465964,5ee95917bdb5522f9ee95e4f,64c7fed44a04f777bb1e18ce,64c800c48c6a43ce13ca8217,,,,,,,,,,,,,,,,,,,,,,
space,6.6668,810631,001,2023-07-31_12h45.28.405,arm3_eps,2022.2.5,Win32,119.8465964,5ee95917bdb5522f9ee95e4f,64c7fed44a04f777bb1e18ce,64c800c48c6a43ce13ca8217,,,,,,,,,,,,,,,,,,,,,,
space,1.6334,810631,001,2023-07-31_12h45.28.405,arm3_eps,2022.2.5,Win32,119.8465964,5ee95917bdb5522f9ee95e4f,64c7fed44a04f777bb1e18ce,64c800c48c6a43ce13ca8217,,,,,,,,,,,,,,,,,,,,,,
,,810631,001,2023-07-31_12h45.28.405,arm3_eps,2022.2.5,Win32,119.8465964,5ee95917bdb5522f9ee95e4f,64c7fed44a04f777bb1e18ce,64c800c48c6a43ce13ca8217,right,-1,1,0.2429,0,0.010289701,4.548,0,0,0,0,1,,,,,,,,,,
,,810631,001,2023-07-31_12h45.28.405,arm3_eps,2022.2.5,Win32,119.8465964,5ee95917bdb5522f9ee95e4f,64c7fed44a04f777bb1e18ce,64c800c48c6a43ce13ca8217,right,-1,1,0.2429,0,0.001886764,2.9505,1,0,1,0,1,,,,,,,,,,
,,810631,001,2023-07-31_12h45.28.405,arm3_eps,2022.2.5,Win32,119.8465964,5ee95917bdb5522f9ee95e4f,64c7fed44a04f777bb1e18ce,64c800c48c6a43ce13ca8217,right,-1,1,0.2429,0,-0.004550934,1.9169,2,0,2,0,1,,,,,,,,,,
,,810631,001,2023-07-31_12h45.28.405,arm3_eps,2022.2.5,Win32,119.8465964,5ee95917bdb5522f9ee95e4f,64c7fed44a04f777bb1e18ce,64c800c48c6a43ce13ca8217,right,-1,1,0.2429,0,-0.016287501,3.6334,3,0,3,0,1,,,,,,,,,,
,,810631,001,2023-07-31_12h45.28.405,arm3_eps,2022.2.5,Win32,119.8465964,5ee95917bdb5522f9ee95e4f,64c7fed44a04f777bb1e18ce,64c800c48c6a43ce13ca8217,right,-1,1,0.2429,0,-0.03868754,1.267,4,0,4,0,1,,,,,,,,,,
,,810631,001,2023-07-31_12h45.28.405,arm3_eps,2022.2.5,Win32,119.8465964,5ee95917bdb5522f9ee95e4f,64c7fed44a04f777bb1e18ce,64c800c48c6a43ce13ca8217,down,-1,1,0.2429,1,0,2.5339,5,0,5,0,1,,,,,,,,,,
,,810631,001,2023-07-31_12h45.28.405,arm3_eps,2022.2.5,Win32,119.8465964,5ee95917bdb5522f9ee95e4f,64c7fed44a04f777bb1e18ce,64c800c48c6a43ce13ca8217,right,-1,1,0.2429,1,-0.020112392,2.8671,6,0,6,0,1,,,,,,,,,,
,,810631,001,2023-07-31_12h45.28.405,arm3_eps,2022.2.5,Win32,119.8465964,5ee95917bdb5522f9ee95e4f,64c7fed44a04f777bb1e18ce,64c800c48c6a43ce13ca8217,right,-1,1,0.2429,1,-0.022442238,0.4503,7,0,7,0,1,,,,,,,,,,
,,810631,001,2023-07-31_12h45.28.405,arm3_eps,2022.2.5,Win32,119.8465964,5ee95917bdb5522f9ee95e4f,64c7fed44a04f777bb1e18ce,64c800c48c6a43ce13ca8217,right,-1,1,0.2429,1,0.007405632,0.4002,8,0,8,0,1,,,,,,,,,,
,,810631,001,2023-07-31_12h45.28.405,arm3_eps,2022.2.5,Win32,119.8465964,5ee95917bdb5522f9ee95e4f,64c7fed44a04f777bb1e18ce,64c800c48c6a43ce13ca8217,right,-1,1,0.2429,1,-0.013215777,0.5002,9,0,9,0,1,,,,,,,,,,
,,810631,001,2023-07-31_12h45.28.405,arm3_eps,2022.2.5,Win32,119.8465964,5ee95917bdb5522f9ee95e4f,64c7fed44a04f777bb1e18ce,64c800c48c6a43ce13ca8217,right,-1,1,0.2429,1,0.002004299,0.3002,10,0,10,0,1,,,,,,,,,,
,,810631,001,2023-07-31_12h45.28.405,arm3_eps,2022.2.5,Win32,119.8465964,5ee95917bdb5522f9ee95e4f,64c7fed44a04f777bb1e18ce,64c800c48c6a43ce13ca8217,right,-1,1,0.2429,1,-0.004565464,0.3835,11,0,11,0,1,,,,,,,,,,
,,810631,001,2023-07-31_12h45.28.405,arm3_eps,2022.2.5,Win32,119.8465964,5ee95917bdb5522f9ee95e4f,64c7fed44a04f777bb1e18ce,64c800c48c6a43ce13ca8217,up,-1,1,0.2429,0,0,0.6671,12,0,12,0,1,,,,,,,,,,
,,810631,001,2023-07-31_12h45.28.405,arm3_eps,2022.2.5,Win32,119.8465964,5ee95917bdb5522f9ee95e4f,64c7fed44a04f777bb1e18ce,64c800c48c6a43ce13ca8217,right,-1,1,0.2429,0,0.015500077,0.8834,13,0,13,0,1,,,,,,,,,,
,,810631,001,2023-07-31_12h45.28.405,arm3_eps,2022.2.5,Win32,119.8465964,5ee95917bdb5522f9ee95e4f,64c7fed44a04f777bb1e18ce,64c800c48c6a43ce13ca8217,right,-1,1,0.2429,0,0.007291306,0.3005,14,0,14,0,1,,,,,,,,,,
,,810631,001,2023-07-31_12h45.28.405,arm3_eps,2022.2.5,Win32,119.8465964,5ee95917bdb5522f9ee95e4f,64c7fed44a04f777bb1e18ce,64c800c48c6a43ce13ca8217,right,-1,1,0.2429,0,-0.016049969,0.2004,15,0,15,0,1,,,,,,,,,,
,,810631,001,2023-07-31_12h45.28.405,arm3_eps,2022.2.5,Win32,119.8465964,5ee95917bdb5522f9ee95e4f,64c7fed44a04f777bb1e18ce,64c800c48c6a43ce13ca8217,right,-1,1,0.2429,0,-0.031954075,0.1834,16,0,16,0,1,,,,,,,,,,
,,810631,001,2023-07-31_12h45.28.405,arm3_eps,2022.2.5,Win32,119.8465964,5ee95917bdb5522f9ee95e4f,64c7fed44a04f777bb1e18ce,64c800c48c6a43ce13ca8217,right,-1,1,0.2429,0,-0.080098811,0.2348,17,0,17,0,1,,,,,,,,,,
,,810631,001,2023-07-31_12h45.28.405,arm3_eps,2022.2.5,Win32,119.8465964,5ee95917bdb5522f9ee95e4f,64c7fed44a04f777bb1e18ce,64c800c48c6a43ce13ca8217,right,-1,1,0.2429,0,-0.072954602,0.7844,18,0,18,0,1,,,,,,,,,,
,,810631,001,2023-07-31_12h45.28.405,arm3_eps,2022.2.5,Win32,119.8465964,5ee95917bdb5522f9ee95e4f,64c7fed44a04f777bb1e18ce,64c800c48c6a43ce13ca8217,down,1,1,0.2429,1,0,1.2166,19,0,19,0,1,,,,,,,,,,
,,810631,001,2023-07-31_12h45.28.405,arm3_eps,2022.2.5,Win32,119.8465964,5ee95917bdb5522f9ee95e4f,64c7fed44a04f777bb1e18ce,64c800c48c6a43ce13ca8217,right,1,1,0.2429,1,0.051707156,0.7671,20,0,20,0,1,,,,,,,,,,
,,810631,001,2023-07-31_12h45.28.405,arm3_eps,2022.2.5,Win32,119.8465964,5ee95917bdb5522f9ee95e4f,64c7fed44a04f777bb1e18ce,64c800c48c6a43ce13ca8217,right,1,1,0.2429,1,0.083765108,0.2002,21,0,21,0,1,,,,,,,,,,
,,810631,001,2023-07-31_12h45.28.405,arm3_eps,2022.2.5,Win32,119.8465964,5ee95917bdb5522f9ee95e4f,64c7fed44a04f777bb1e18ce,64c800c48c6a43ce13ca8217,right,1,1,0.2429,1,0.111556493,0.1502,22,0,22,0,1,,,,,,,,,,
,,810631,001,2023-07-31_12h45.28.405,arm3_eps,2022.2.5,Win32,119.8465964,5ee95917bdb5522f9ee95e4f,64c7fed44a04f777bb1e18ce,64c800c48c6a43ce13ca8217,right,1,1,0.2429,1,0.14325807,0.1506,23,0,23,0,1,,,,,,,,,,
,,810631,001,2023-07-31_12h45.28.405,arm3_eps,2022.2.5,Win32,119.8465964,5ee95917bdb5522f9ee95e4f,64c7fed44a04f777bb1e18ce,64c800c48c6a43ce13ca8217,right,1,1,0.2429,1,0.166839406,0.1504,24,0,24,0,1,,,,,,,,,,
,,810631,001,2023-07-31_12h45.28.405,arm3_eps,2022.2.5,Win32,119.8465964,5ee95917bdb5522f9ee95e4f,64c7fed44a04f777bb1e18ce,64c800c48c6a43ce13ca8217,up,1,1,0.2429,2,0,0.5337,25,0,25,0,1,,,,,,,,,,
,,810631,001,2023-07-31_12h45.28.405,arm3_eps,2022.2.5,Win32,119.8465964,5ee95917bdb5522f9ee95e4f,64c7fed44a04f777bb1e18ce,64c800c48c6a43ce13ca8217,right,1,1,0.2429,2,0.027149157,0.4836,26,0,26,0,1,,,,,,,,,,
,,810631,001,2023-07-31_12h45.28.405,arm3_eps,2022.2.5,Win32,119.8465964,5ee95917bdb5522f9ee95e4f,64c7fed44a04f777bb1e18ce,64c800c48c6a43ce13ca8217,right,1,1,0.2429,2,0.041063643,0.2,27,0,27,0,1,,,,,,,,,,
,,810631,001,2023-07-31_12h45.28.405,arm3_eps,2022.2.5,Win32,119.8465964,5ee95917bdb5522f9ee95e4f,64c7fed44a04f777bb1e18ce,64c800c48c6a43ce13ca8217,right,1,1,0.2429,2,0.052992285,0.1836,28,0,28,0,1,,,,,,,,,,
,,810631,001,2023-07-31_12h45.28.405,arm3_eps,2022.2.5,Win32,119.8465964,5ee95917bdb5522f9ee95e4f,64c7fed44a04f777bb1e18ce,64c800c48c6a43ce13ca8217,right,1,1,0.2429,2,0.061446669,0.1834,29,0,29,0,1,,,,,,,,,,
,,810631,001,2023-07-31_12h45.28.405,arm3_eps,2022.2.5,Win32,119.8465964,5ee95917bdb5522f9ee95e4f,64c7fed44a04f777bb1e18ce,64c800c48c6a43ce13ca8217,right,1,1,0.2429,2,0.058065211,0.1669,30,0,30,0,1,,,,,,,,,,
,,810631,001,2023-07-31_12h45.28.405,arm3_eps,2022.2.5,Win32,119.8465964,5ee95917bdb5522f9ee95e4f,64c7fed44a04f777bb1e18ce,64c800c48c6a43ce13ca8217,right,1,1,0.2429,2,0.062069902,0.1504,31,0,31,0,1,,,,,,,,,,
,,810631,001,2023-07-31_12h45.28.405,arm3_eps,2022.2.5,Win32,119.8465964,5ee95917bdb5522f9ee95e4f,64c7fed44a04f777bb1e18ce,64c800c48c6a43ce13ca8217,up,1,1,0.2429,3,0,0.4169,32,0,32,0,1,,,,,,,,,,
,,810631,001,2023-07-31_12h45.28.405,arm3_eps,2022.2.5,Win32,119.8465964,5ee95917bdb5522f9ee95e4f,64c7fed44a04f777bb1e18ce,64c800c48c6a43ce13ca8217,right,1,1,0.2429,3,0.012276154,0.419,33,0,33,0,1,,,,,,,,,,
,,810631,001,2023-07-31_12h45.28.405,arm3_eps,2022.2.5,Win32,119.8465964,5ee95917bdb5522f9ee95e4f,64c7fed44a04f777bb1e18ce,64c800c48c6a43ce13ca8217,right,1,1,0.2429,3,0.009804318,0.1836,34,0,34,0,1,,,,,,,,,,
,,810631,001,2023-07-31_12h45.28.405,arm3_eps,2022.2.5,Win32,119.8465964,5ee95917bdb5522f9ee95e4f,64c7fed44a04f777bb1e18ce,64c800c48c6a43ce13ca8217,right,1,1,0.2429,3,0.017111791,0.1529,35,0,35,0,1,,,,,,,,,,
,,810631,001,2023-07-31_12h45.28.405,arm3_eps,2022.2.5,Win32,119.8465964,5ee95917bdb5522f9ee95e4f,64c7fed44a04f777bb1e18ce,64c800c48c6a43ce13ca8217,right,1,1,0.2429,3,0.041292675,0.1506,36,0,36,0,1,,,,,,,,,,
,,810631,001,2023-07-31_12h45.28.405,arm3_eps,2022.2.5,Win32,119.8465964,5ee95917bdb5522f9ee95e4f,64c7fed44a04f777bb1e18ce,64c800c48c6a43ce13ca8217,right,1,1,0.2429,3,0.060846749,0.117,37,0,37,0,1,,,,,,,,,,
,,810631,001,2023-07-31_12h45.28.405,arm3_eps,2022.2.5,Win32,119.8465964,5ee95917bdb5522f9ee95e4f,64c7fed44a04f777bb1e18ce,64c800c48c6a43ce13ca8217,right,1,1,0.2429,3,0.055019074,0.1358,38,0,38,0,1,,,,,,,,,,
,,810631,001,2023-07-31_12h45.28.405,arm3_eps,2022.2.5,Win32,119.8465964,5ee95917bdb5522f9ee95e4f,64c7fed44a04f777bb1e18ce,64c800c48c6a43ce13ca8217,right,1,1,0.2429,3,0.099800204,0.3338,39,0,39,0,1,,,,,,,,,,
,,810631,001,2023-07-31_12h45.28.405,arm3_eps,2022.2.5,Win32,119.8465964,5ee95917bdb5522f9ee95e4f,64c7fed44a04f777bb1e18ce,64c800c48c6a43ce13ca8217,up,1,1,0.2429,4,0,0.1534,40,0,40,0,1,,,,,,,,,,
,,810631,001,2023-07-31_12h45.28.405,arm3_eps,2022.2.5,Win32,119.8465964,5ee95917bdb5522f9ee95e4f,64c7fed44a04f777bb1e18ce,64c800c48c6a43ce13ca8217,right,1,1,0.2429,4,0.019346817,0.2995,41,0,41,0,1,,,,,,,,,,
,,810631,001,2023-07-31_12h45.28.405,arm3_eps,2022.2.5,Win32,119.8465964,5ee95917bdb5522f9ee95e4f,64c7fed44a04f777bb1e18ce,64c800c48c6a43ce13ca8217,right,1,1,0.2429,4,0.024668278,0.1504,42,0,42,0,1,,,,,,,,,,
,,810631,001,2023-07-31_12h45.28.405,arm3_eps,2022.2.5,Win32,119.8465964,5ee95917bdb5522f9ee95e4f,64c7fed44a04f777bb1e18ce,64c800c48c6a43ce13ca8217,right,1,1,0.2429,4,0.023000929,0.1316,43,0,43,0,1,,,,,,,,,,
,,810631,001,2023-07-31_12h45.28.405,arm3_eps,2022.2.5,Win32,119.8465964,5ee95917bdb5522f9ee95e4f,64c7fed44a04f777bb1e18ce,64c800c48c6a43ce13ca8217,right,1,1,0.2429,4,0.015668057,0.1353,44,0,44,0,1,,,,,,,,,,
,,810631,001,2023-07-31_12h45.28.405,arm3_eps,2022.2.5,Win32,119.8465964,5ee95917bdb5522f9ee95e4f,64c7fed44a04f777bb1e18ce,64c800c48c6a43ce13ca8217,right,1,1,0.2429,4,0.032066332,0.1501,45,0,45,0,1,,,,,,,,,,
,,810631,001,2023-07-31_12h45.28.405,arm3_eps,2022.2.5,Win32,119.8465964,5ee95917bdb5522f9ee95e4f,64c7fed44a04f777bb1e18ce,64c800c48c6a43ce13ca8217,right,1,1,0.2429,4,0.024109214,0.1155,46,0,46,0,1,,,,,,,,,,
,,810631,001,2023-07-31_12h45.28.405,arm3_eps,2022.2.5,Win32,119.8465964,5ee95917bdb5522f9ee95e4f,64c7fed44a04f777bb1e18ce,64c800c48c6a43ce13ca8217,right,1,1,0.2429,4,0.031586922,0.1169,47,0,47,0,1,,,,,,,,,,
,,810631,001,2023-07-31_12h45.28.405,arm3_eps,2022.2.5,Win32,119.8465964,5ee95917bdb5522f9ee95e4f,64c7fed44a04f777bb1e18ce,64c800c48c6a43ce13ca8217,up,1,1,0.2429,5,0,0.265,48,0,48,0,1,,,,,,,,,,
,,810631,001,2023-07-31_12h45.28.405,arm3_eps,2022.2.5,Win32,119.8465964,5ee95917bdb5522f9ee95e4f,64c7fed44a04f777bb1e18ce,64c800c48c6a43ce13ca8217,right,1,1,0.2429,5,0.005673272,0.349,49,0,49,0,1,,,,,,,,,,
space,52.0829,810631,001,2023-07-31_12h45.28.405,arm3_eps,2022.2.5,Win32,119.8465964,5ee95917bdb5522f9ee95e4f,64c7fed44a04f777bb1e18ce,64c800c48c6a43ce13ca8217,,,,,,,,,,,,,,,,,,,,,,
space,8.8832,810631,001,2023-07-31_12h45.28.405,arm3_eps,2022.2.5,Win32,119.8465964,5ee95917bdb5522f9ee95e4f,64c7fed44a04f777bb1e18ce,64c800c48c6a43ce13ca8217,,,,,,,,,,,,,,,,,,,,,,
space,16.0664,810631,001,2023-07-31_12h45.28.405,arm3_eps,2022.2.5,Win32,119.8465964,5ee95917bdb5522f9ee95e4f,64c7fed44a04f777bb1e18ce,64c800c48c6a43ce13ca8217,,,,,,,,,,,,,,,,,,,,,,
space,22,810631,001,2023-07-31_12h45.28.405,arm3_eps,2022.2.5,Win32,119.8465964,5ee95917bdb5522f9ee95e4f,64c7fed44a04f777bb1e18ce,64c800c48c6a43ce13ca8217,,,,,,,,,,,,,,,,,,,,,,
space,3.5339,810631,001,2023-07-31_12h45.28.405,arm3_eps,2022.2.5,Win32,119.8465964,5ee95917bdb5522f9ee95e4f,64c7fed44a04f777bb1e18ce,64c800c48c6a43ce13ca8217,,,,,,,,,,,,,,,,,,,,,,
space,3.0836,810631,001,2023-07-31_12h45.28.405,arm3_eps,2022.2.5,Win32,119.8465964,5ee95917bdb5522f9ee95e4f,64c7fed44a04f777bb1e18ce,64c800c48c6a43ce13ca8217,,,,,,,,,,,,,,,,,,,,,,
,,810631,001,2023-07-31_12h45.28.405,arm3_eps,2022.2.5,Win32,119.8465964,5ee95917bdb5522f9ee95e4f,64c7fed44a04f777bb1e18ce,64c800c48c6a43ce13ca8217,right,1,0.75,0.2429,0,0.026577723,0.6002,0,0,0,0,1,,,,,,,,,,
,,810631,001,2023-07-31_12h45.28.405,arm3_eps,2022.2.5,Win32,119.8465964,5ee95917bdb5522f9ee95e4f,64c7fed44a04f777bb1e18ce,64c800c48c6a43ce13ca8217,right,1,0.75,0.2429,0,0.069521553,0.1833,1,0,1,0,1,,,,,,,,,,
,,810631,001,2023-07-31_12h45.28.405,arm3_eps,2022.2.5,Win32,119.8465964,5ee95917bdb5522f9ee95e4f,64c7fed44a04f777bb1e18ce,64c800c48c6a43ce13ca8217,right,1,0.75,0.2429,0,0.073331729,0.1667,2,0,2,0,1,,,,,,,,,,
,,810631,001,2023-07-31_12h45.28.405,arm3_eps,2022.2.5,Win32,119.8465964,5ee95917bdb5522f9ee95e4f,64c7fed44a04f777bb1e18ce,64c800c48c6a43ce13ca8217,right,1,0.75,0.2429,0,0.051849298,0.1335,3,0,3,0,1,,,,,,,,,,
,,810631,001,2023-07-31_12h45.28.405,arm3_eps,2022.2.5,Win32,119.8465964,5ee95917bdb5522f9ee95e4f,64c7fed44a04f777bb1e18ce,64c800c48c6a43ce13ca8217,right,1,0.75,0.2429,0,0.087073937,0.1349,4,0,4,0,1,,,,,,,,,,
,,810631,001,2023-07-31_12h45.28.405,arm3_eps,2022.2.5,Win32,119.8465964,5ee95917bdb5522f9ee95e4f,64c7fed44a04f777bb1e18ce,64c800c48c6a43ce13ca8217,up,1,0.75,0.2429,1,0,0.5003,5,0,5,0,1,,,,,,,,,,
,,810631,001,2023-07-31_12h45.28.405,arm3_eps,2022.2.5,Win32,119.8465964,5ee95917bdb5522f9ee95e4f,64c7fed44a04f777bb1e18ce,64c800c48c6a43ce13ca8217,right,1,0.75,0.2429,1,0.017870858,0.7997,6,0,6,0,1,,,,,,,,,,
,,810631,001,2023-07-31_12h45.28.405,arm3_eps,2022.2.5,Win32,119.8465964,5ee95917bdb5522f9ee95e4f,64c7fed44a04f777bb1e18ce,64c800c48c6a43ce13ca8217,right,1,0.75,0.2429,1,0.039915149,0.1505,7,0,7,0,1,,,,,,,,,,
,,810631,001,2023-07-31_12h45.28.405,arm3_eps,2022.2.5,Win32,119.8465964,5ee95917bdb5522f9ee95e4f,64c7fed44a04f777bb1e18ce,64c800c48c6a43ce13ca8217,right,1,0.75,0.2429,1,0.020176225,0.1336,8,0,8,0,1,,,,,,,,,,
,,810631,001,2023-07-31_12h45.28.405,arm3_eps,2022.2.5,Win32,119.8465964,5ee95917bdb5522f9ee95e4f,64c7fed44a04f777bb1e18ce,64c800c48c6a43ce13ca8217,right,1,0.75,0.2429,1,0.042986867,0.117,9,0,9,0,1,,,,,,,,,,
,,810631,001,2023-07-31_12h45.28.405,arm3_eps,2022.2.5,Win32,119.8465964,5ee95917bdb5522f9ee95e4f,64c7fed44a04f777bb1e18ce,64c800c48c6a43ce13ca8217,up,1,0.75,0.2429,2,0,0.4682,10,0,10,0,1,,,,,,,,,,
,,810631,001,2023-07-31_12h45.28.405,arm3_eps,2022.2.5,Win32,119.8465964,5ee95917bdb5522f9ee95e4f,64c7fed44a04f777bb1e18ce,64c800c48c6a43ce13ca8217,right,1,0.75,0.2429,2,0.014323651,0.2501,11,0,11,0,1,,,,,,,,,,
,,810631,001,2023-07-31_12h45.28.405,arm3_eps,2022.2.5,Win32,119.8465964,5ee95917bdb5522f9ee95e4f,64c7fed44a04f777bb1e18ce,64c800c48c6a43ce13ca8217,right,1,0.75,0.2429,2,0.020193449,0.1662,12,0,12,0,1,,,,,,,,,,
,,810631,001,2023-07-31_12h45.28.405,arm3_eps,2022.2.5,Win32,119.8465964,5ee95917bdb5522f9ee95e4f,64c7fed44a04f777bb1e18ce,64c800c48c6a43ce13ca8217,right,1,0.75,0.2429,2,0.05764872,0.1329,13,0,13,0,1,,,,,,,,,,
,,810631,001,2023-07-31_12h45.28.405,arm3_eps,2022.2.5,Win32,119.8465964,5ee95917bdb5522f9ee95e4f,64c7fed44a04f777bb1e18ce,64c800c48c6a43ce13ca8217,right,1,0.75,0.2429,2,0.065685446,0.134,14,0,14,0,1,,,,,,,,,,
,,810631,001,2023-07-31_12h45.28.405,arm3_eps,2022.2.5,Win32,119.8465964,5ee95917bdb5522f9ee95e4f,64c7fed44a04f777bb1e18ce,64c800c48c6a43ce13ca8217,right,1,0.75,0.2429,2,0.070531623,0.1168,15,0,15,0,1,,,,,,,,,,
,,810631,001,2023-07-31_12h45.28.405,arm3_eps,2022.2.5,Win32,119.8465964,5ee95917bdb5522f9ee95e4f,64c7fed44a04f777bb1e18ce,64c800c48c6a43ce13ca8217,up,1,0.75,0.2429,3,0,0.1504,16,0,16,0,1,,,,,,,,,,
,,810631,001,2023-07-31_12h45.28.405,arm3_eps,2022.2.5,Win32,119.8465964,5ee95917bdb5522f9ee95e4f,64c7fed44a04f777bb1e18ce,64c800c48c6a43ce13ca8217,right,1,0.75,0.2429,3,0.004759172,0.2672,17,0,17,0,1,,,,,,,,,,
,,810631,001,2023-07-31_12h45.28.405,arm3_eps,2022.2.5,Win32,119.8465964,5ee95917bdb5522f9ee95e4f,64c7fed44a04f777bb1e18ce,64c800c48c6a43ce13ca8217,right,1,0.75,0.2429,3,0.013218427,0.1168,18,0,18,0,1,,,,,,,,,,
,,810631,001,2023-07-31_12h45.28.405,arm3_eps,2022.2.5,Win32,119.8465964,5ee95917bdb5522f9ee95e4f,64c7fed44a04f777bb1e18ce,64c800c48c6a43ce13ca8217,right,1,0.75,0.2429,3,0.014248364,0.167,19,0,19,0,1,,,,,,,,,,
,,810631,001,2023-07-31_12h45.28.405,arm3_eps,2022.2.5,Win32,119.8465964,5ee95917bdb5522f9ee95e4f,64c7fed44a04f777bb1e18ce,64c800c48c6a43ce13ca8217,right,1,0.75,0.2429,3,0.01203057,0.1334,20,0,20,0,1,,,,,,,,,,
,,810631,001,2023-07-31_12h45.28.405,arm3_eps,2022.2.5,Win32,119.8465964,5ee95917bdb5522f9ee95e4f,64c7fed44a04f777bb1e18ce,64c800c48c6a43ce13ca8217,right,1,0.75,0.2429,3,0.047310476,0.1007,21,0,21,0,1,,,,,,,,,,
,,810631,001,2023-07-31_12h45.28.405,arm3_eps,2022.2.5,Win32,119.8465964,5ee95917bdb5522f9ee95e4f,64c7fed44a04f777bb1e18ce,64c800c48c6a43ce13ca8217,right,1,0.75,0.2429,3,0.031806009,0.1168,22,0,22,0,1,,,,,,,,,,
,,810631,001,2023-07-31_12h45.28.405,arm3_eps,2022.2.5,Win32,119.8465964,5ee95917bdb5522f9ee95e4f,64c7fed44a04f777bb1e18ce,64c800c48c6a43ce13ca8217,up,1,0.75,0.2429,3,0,0.117,23,0,23,0,1,,,,,,,,,,
,,810631,001,2023-07-31_12h45.28.405,arm3_eps,2022.2.5,Win32,119.8465964,5ee95917bdb5522f9ee95e4f,64c7fed44a04f777bb1e18ce,64c800c48c6a43ce13ca8217,right,1,0.75,0.2429,3,0.017028507,0.2837,24,0,24,0,1,,,,,,,,,,
,,810631,001,2023-07-31_12h45.28.405,arm3_eps,2022.2.5,Win32,119.8465964,5ee95917bdb5522f9ee95e4f,64c7fed44a04f777bb1e18ce,64c800c48c6a43ce13ca8217,right,1,0.75,0.2429,3,-0.010479324,0.1505,25,0,25,0,1,,,,,,,,,,
,,810631,001,2023-07-31_12h45.28.405,arm3_eps,2022.2.5,Win32,119.8465964,5ee95917bdb5522f9ee95e4f,64c7fed44a04f777bb1e18ce,64c800c48c6a43ce13ca8217,right,1,0.75,0.2429,3,-0.000431975,0.1667,26,0,26,0,1,,,,,,,,,,
,,810631,001,2023-07-31_12h45.28.405,arm3_eps,2022.2.5,Win32,119.8465964,5ee95917bdb5522f9ee95e4f,64c7fed44a04f777bb1e18ce,64c800c48c6a43ce13ca8217,right,1,0.75,0.2429,3,0.008079383,0.1332,27,0,27,0,1,,,,,,,,,,
,,810631,001,2023-07-31_12h45.28.405,arm3_eps,2022.2.5,Win32,119.8465964,5ee95917bdb5522f9ee95e4f,64c7fed44a04f777bb1e18ce,64c800c48c6a43ce13ca8217,right,1,0.75,0.2429,3,-0.002505966,0.1169,28,0,28,0,1,,,,,,,,,,
,,810631,001,2023-07-31_12h45.28.405,arm3_eps,2022.2.5,Win32,119.8465964,5ee95917bdb5522f9ee95e4f,64c7fed44a04f777bb1e18ce,64c800c48c6a43ce13ca8217,right,1,0.75,0.2429,3,-0.021204802,0.1334,29,0,29,0,1,,,,,,,,,,
,,810631,001,2023-07-31_12h45.28.405,arm3_eps,2022.2.5,Win32,119.8465964,5ee95917bdb5522f9ee95e4f,64c7fed44a04f777bb1e18ce,64c800c48c6a43ce13ca8217,down,1,0.75,0.2429,2,0,0.2833,30,0,30,0,1,,,,,,,,,,
,,810631,001,2023-07-31_12h45.28.405,arm3_eps,2022.2.5,Win32,119.8465964,5ee95917bdb5522f9ee95e4f,64c7fed44a04f777bb1e18ce,64c800c48c6a43ce13ca8217,right,1,0.75,0.2429,2,0.014600322,0.2334,31,0,31,0,1,,,,,,,,,,
,,810631,001,2023-07-31_12h45.28.405,arm3_eps,2022.2.5,Win32,119.8465964,5ee95917bdb5522f9ee95e4f,64c7fed44a04f777bb1e18ce,64c800c48c6a43ce13ca8217,right,1,0.75,0.2429,2,-0.001617297,0.167,32,0,32,0,1,,,,,,,,,,
,,810631,001,2023-07-31_12h45.28.405,arm3_eps,2022.2.5,Win32,119.8465964,5ee95917bdb5522f9ee95e4f,64c7fed44a04f777bb1e18ce,64c800c48c6a43ce13ca8217,right,1,0.75,0.2429,2,0.027361138,0.1672,33,0,33,0,1,,,,,,,,,,
,,810631,001,2023-07-31_12h45.28.405,arm3_eps,2022.2.5,Win32,119.8465964,5ee95917bdb5522f9ee95e4f,64c7fed44a04f777bb1e18ce,64c800c48c6a43ce13ca8217,right,1,0.75,0.2429,2,0.014933698,0.1335,34,0,34,0,1,,,,,,,,,,
,,810631,001,2023-07-31_12h45.28.405,arm3_eps,2022.2.5,Win32,119.8465964,5ee95917bdb5522f9ee95e4f,64c7fed44a04f777bb1e18ce,64c800c48c6a43ce13ca8217,right,1,0.75,0.2429,2,0.054272533,0.1001,35,0,35,0,1,,,,,,,,,,
,,810631,001,2023-07-31_12h45.28.405,arm3_eps,2022.2.5,Win32,119.8465964,5ee95917bdb5522f9ee95e4f,64c7fed44a04f777bb1e18ce,64c800c48c6a43ce13ca8217,up,1,0.75,0.2429,3,0,0.3337,36,0,36,0,1,,,,,,,,,,
,,810631,001,2023-07-31_12h45.28.405,arm3_eps,2022.2.5,Win32,119.8465964,5ee95917bdb5522f9ee95e4f,64c7fed44a04f777bb1e18ce,64c800c48c6a43ce13ca8217,right,1,0.75,0.2429,3,0.030525683,0.2168,37,0,37,0,1,,,,,,,,,,
,,810631,001,2023-07-31_12h45.28.405,arm3_eps,2022.2.5,Win32,119.8465964,5ee95917bdb5522f9ee95e4f,64c7fed44a04f777bb1e18ce,64c800c48c6a43ce13ca8217,right,1,0.75,0.2429,3,0.04585234,0.1168,38,0,38,0,1,,,,,,,,,,
,,810631,001,2023-07-31_12h45.28.405,arm3_eps,2022.2.5,Win32,119.8465964,5ee95917bdb5522f9ee95e4f,64c7fed44a04f777bb1e18ce,64c800c48c6a43ce13ca8217,right,1,0.75,0.2429,3,0.050465966,0.1502,39,0,39,0,1,,,,,,,,,,
,,810631,001,2023-07-31_12h45.28.405,arm3_eps,2022.2.5,Win32,119.8465964,5ee95917bdb5522f9ee95e4f,64c7fed44a04f777bb1e18ce,64c800c48c6a43ce13ca8217,right,1,0.75,0.2429,3,0.017964353,0.1337,40,0,40,0,1,,,,,,,,,,
,,810631,001,2023-07-31_12h45.28.405,arm3_eps,2022.2.5,Win32,119.8465964,5ee95917bdb5522f9ee95e4f,64c7fed44a04f777bb1e18ce,64c800c48c6a43ce13ca8217,right,1,0.75,0.2429,3,0.014718928,0.0999,41,0,41,0,1,,,,,,,,,,
,,810631,001,2023-07-31_12h45.28.405,arm3_eps,2022.2.5,Win32,119.8465964,5ee95917bdb5522f9ee95e4f,64c7fed44a04f777bb1e18ce,64c800c48c6a43ce13ca8217,up,-1,0.75,0.2429,4,0,0.3337,42,0,42,0,1,,,,,,,,,,
,,810631,001,2023-07-31_12h45.28.405,arm3_eps,2022.2.5,Win32,119.8465964,5ee95917bdb5522f9ee95e4f,64c7fed44a04f777bb1e18ce,64c800c48c6a43ce13ca8217,right,-1,0.75,0.2429,4,0.013211297,0.2169,43,0,43,0,1,,,,,,,,,,
,,810631,001,2023-07-31_12h45.28.405,arm3_eps,2022.2.5,Win32,119.8465964,5ee95917bdb5522f9ee95e4f,64c7fed44a04f777bb1e18ce,64c800c48c6a43ce13ca8217,right,-1,0.75,0.2429,4,-0.011704123,0.1501,44,0,44,0,1,,,,,,,,,,
,,810631,001,2023-07-31_12h45.28.405,arm3_eps,2022.2.5,Win32,119.8465964,5ee95917bdb5522f9ee95e4f,64c7fed44a04f777bb1e18ce,64c800c48c6a43ce13ca8217,right,-1,0.75,0.2429,4,-0.016449918,0.1505,45,0,45,0,1,,,,,,,,,,
,,810631,001,2023-07-31_12h45.28.405,arm3_eps,2022.2.5,Win32,119.8465964,5ee95917bdb5522f9ee95e4f,64c7fed44a04f777bb1e18ce,64c800c48c6a43ce13ca8217,right,-1,0.75,0.2429,4,-0.03819635,0.1336,46,0,46,0,1,,,,,,,,,,
,,810631,001,2023-07-31_12h45.28.405,arm3_eps,2022.2.5,Win32,119.8465964,5ee95917bdb5522f9ee95e4f,64c7fed44a04f777bb1e18ce,64c800c48c6a43ce13ca8217,right,-1,0.75,0.2429,4,-0.044108129,0.1168,47,0,47,0,1,,,,,,,,,,
,,810631,001,2023-07-31_12h45.28.405,arm3_eps,2022.2.5,Win32,119.8465964,5ee95917bdb5522f9ee95e4f,64c7fed44a04f777bb1e18ce,64c800c48c6a43ce13ca8217,down,-1,0.75,0.2429,5,0,0.1343,48,0,48,0,1,,,,,,,,,,
,,810631,001,2023-07-31_12h45.28.405,arm3_eps,2022.2.5,Win32,119.8465964,5ee95917bdb5522f9ee95e4f,64c7fed44a04f777bb1e18ce,64c800c48c6a43ce13ca8217,right,-1,0.75,0.2429,5,-0.019884478,0.167,49,0,49,0,1,,,,,,,,,,
space,10.569,810631,001,2023-07-31_12h45.28.405,arm3_eps,2022.2.5,Win32,119.8465964,5ee95917bdb5522f9ee95e4f,64c7fed44a04f777bb1e18ce,64c800c48c6a43ce13ca8217,,,,,,,,,,,,,,,,,,,,,,
space,16.1333,810631,001,2023-07-31_12h45.28.405,arm3_eps,2022.2.5,Win32,119.8465964,5ee95917bdb5522f9ee95e4f,64c7fed44a04f777bb1e18ce,64c800c48c6a43ce13ca8217,,,,,,,,,,,,,,,,,,,,,,
space,0.9001,810631,001,2023-07-31_12h45.28.405,arm3_eps,2022.2.5,Win32,119.8465964,5ee95917bdb5522f9ee95e4f,64c7fed44a04f777bb1e18ce,64c800c48c6a43ce13ca8217,,,,,,,,,,,,,,,,,,,,,,
,,810631,001,2023-07-31_12h45.28.405,arm3_eps,2022.2.5,Win32,119.8465964,5ee95917bdb5522f9ee95e4f,64c7fed44a04f777bb1e18ce,64c800c48c6a43ce13ca8217,right,-1,0.75,0.05,0,-0.015068834,0.2165,0,0,0,0,1,,,,,,,,,,
,,810631,001,2023-07-31_12h45.28.405,arm3_eps,2022.2.5,Win32,119.8465964,5ee95917bdb5522f9ee95e4f,64c7fed44a04f777bb1e18ce,64c800c48c6a43ce13ca8217,right,-1,0.75,0.05,0,-0.018714601,0.1669,1,0,1,0,1,,,,,,,,,,
,,810631,001,2023-07-31_12h45.28.405,arm3_eps,2022.2.5,Win32,119.8465964,5ee95917bdb5522f9ee95e4f,64c7fed44a04f777bb1e18ce,64c800c48c6a43ce13ca8217,right,-1,0.75,0.05,0,-0.058389532,0.1171,2,0,2,0,1,,,,,,,,,,
,,810631,001,2023-07-31_12h45.28.405,arm3_eps,2022.2.5,Win32,119.8465964,5ee95917bdb5522f9ee95e4f,64c7fed44a04f777bb1e18ce,64c800c48c6a43ce13ca8217,right,-1,0.75,0.05,0,-0.06577609,0.1502,3,0,3,0,1,,,,,,,,,,
,,810631,001,2023-07-31_12h45.28.405,arm3_eps,2022.2.5,Win32,119.8465964,5ee95917bdb5522f9ee95e4f,64c7fed44a04f777bb1e18ce,64c800c48c6a43ce13ca8217,down,-1,0.75,0.05,1,0,0.1531,4,0,4,0,1,,,,,,,,,,
,,810631,001,2023-07-31_12h45.28.405,arm3_eps,2022.2.5,Win32,119.8465964,5ee95917bdb5522f9ee95e4f,64c7fed44a04f777bb1e18ce,64c800c48c6a43ce13ca8217,right,-1,0.75,0.05,1,-0.002406628,0.7169,5,0,5,0,1,,,,,,,,,,
,,810631,001,2023-07-31_12h45.28.405,arm3_eps,2022.2.5,Win32,119.8465964,5ee95917bdb5522f9ee95e4f,64c7fed44a04f777bb1e18ce,64c800c48c6a43ce13ca8217,right,-1,0.75,0.05,1,-0.006500209,0.3343,6,0,6,0,1,,,,,,,,,,
,,810631,001,2023-07-31_12h45.28.405,arm3_eps,2022.2.5,Win32,119.8465964,5ee95917bdb5522f9ee95e4f,64c7fed44a04f777bb1e18ce,64c800c48c6a43ce13ca8217,right,-1,0.75,0.05,1,-0.026354174,0.1503,7,0,7,0,1,,,,,,,,,,
,,810631,001,2023-07-31_12h45.28.405,arm3_eps,2022.2.5,Win32,119.8465964,5ee95917bdb5522f9ee95e4f,64c7fed44a04f777bb1e18ce,64c800c48c6a43ce13ca8217,right,-1,0.75,0.05,1,-0.044078829,0.1492,8,0,8,0,1,,,,,,,,,,
,,810631,001,2023-07-31_12h45.28.405,arm3_eps,2022.2.5,Win32,119.8465964,5ee95917bdb5522f9ee95e4f,64c7fed44a04f777bb1e18ce,64c800c48c6a43ce13ca8217,right,-1,0.75,0.05,1,0.000124846,0.1001,9,0,9,0,1,,,,,,,,,,
,,810631,001,2023-07-31_12h45.28.405,arm3_eps,2022.2.5,Win32,119.8465964,5ee95917bdb5522f9ee95e4f,64c7fed44a04f777bb1e18ce,64c800c48c6a43ce13ca8217,down,-1,0.75,0.05,1,0,0.2002,10,0,10,0,1,,,,,,,,,,
,,810631,001,2023-07-31_12h45.28.405,arm3_eps,2022.2.5,Win32,119.8465964,5ee95917bdb5522f9ee95e4f,64c7fed44a04f777bb1e18ce,64c800c48c6a43ce13ca8217,right,-1,0.75,0.05,1,-0.021419526,0.4001,11,0,11,0,1,,,,,,,,,,
,,810631,001,2023-07-31_12h45.28.405,arm3_eps,2022.2.5,Win32,119.8465964,5ee95917bdb5522f9ee95e4f,64c7fed44a04f777bb1e18ce,64c800c48c6a43ce13ca8217,right,-1,0.75,0.05,1,-0.052348646,0.4168,12,0,12,0,1,,,,,,,,,,
,,810631,001,2023-07-31_12h45.28.405,arm3_eps,2022.2.5,Win32,119.8465964,5ee95917bdb5522f9ee95e4f,64c7fed44a04f777bb1e18ce,64c800c48c6a43ce13ca8217,right,-1,0.75,0.05,1,-0.039460706,0.135,13,0,13,0,1,,,,,,,,,,
,,810631,001,2023-07-31_12h45.28.405,arm3_eps,2022.2.5,Win32,119.8465964,5ee95917bdb5522f9ee95e4f,64c7fed44a04f777bb1e18ce,64c800c48c6a43ce13ca8217,right,-1,0.75,0.05,1,-0.079673628,0.1342,14,0,14,0,1,,,,,,,,,,
,,810631,001,2023-07-31_12h45.28.405,arm3_eps,2022.2.5,Win32,119.8465964,5ee95917bdb5522f9ee95e4f,64c7fed44a04f777bb1e18ce,64c800c48c6a43ce13ca8217,right,-1,0.75,0.05,1,-0.101077266,0.1173,15,0,15,0,1,,,,,,,,,,
,,810631,001,2023-07-31_12h45.28.405,arm3_eps,2022.2.5,Win32,119.8465964,5ee95917bdb5522f9ee95e4f,64c7fed44a04f777bb1e18ce,64c800c48c6a43ce13ca8217,down,-1,0.75,0.05,2,0,0.1503,16,0,16,0,1,,,,,,,,,,
,,810631,001,2023-07-31_12h45.28.405,arm3_eps,2022.2.5,Win32,119.8465964,5ee95917bdb5522f9ee95e4f,64c7fed44a04f777bb1e18ce,64c800c48c6a43ce13ca8217,right,-1,0.75,0.05,2,0.020296407,0.2171,17,0,17,0,1,,,,,,,,,,
,,810631,001,2023-07-31_12h45.28.405,arm3_eps,2022.2.5,Win32,119.8465964,5ee95917bdb5522f9ee95e4f,64c7fed44a04f777bb1e18ce,64c800c48c6a43ce13ca8217,right,-1,0.75,0.05,2,0.035333867,0.1502,18,0,18,0,1,,,,,,,,,,
,,810631,001,2023-07-31_12h45.28.405,arm3_eps,2022.2.5,Win32,119.8465964,5ee95917bdb5522f9ee95e4f,64c7fed44a04f777bb1e18ce,64c800c48c6a43ce13ca8217,right,-1,0.75,0.05,2,0.050243511,0.1033,19,0,19,0,1,,,,,,,,,,
,,810631,001,2023-07-31_12h45.28.405,arm3_eps,2022.2.5,Win32,119.8465964,5ee95917bdb5522f9ee95e4f,64c7fed44a04f777bb1e18ce,64c800c48c6a43ce13ca8217,right,-1,0.75,0.05,2,0.024872763,0.1333,20,0,20,0,1,,,,,,,,,,
,,810631,001,2023-07-31_12h45.28.405,arm3_eps,2022.2.5,Win32,119.8465964,5ee95917bdb5522f9ee95e4f,64c7fed44a04f777bb1e18ce,64c800c48c6a43ce13ca8217,right,-1,0.75,0.05,2,-0.022286667,0.1334,21,0,21,0,1,,,,,,,,,,
,,810631,001,2023-07-31_12h45.28.405,arm3_eps,2022.2.5,Win32,119.8465964,5ee95917bdb5522f9ee95e4f,64c7fed44a04f777bb1e18ce,64c800c48c6a43ce13ca8217,right,-1,0.75,0.05,2,-0.000303577,0.1337,22,0,22,0,1,,,,,,,,,,
,,810631,001,2023-07-31_12h45.28.405,arm3_eps,2022.2.5,Win32,119.8465964,5ee95917bdb5522f9ee95e4f,64c7fed44a04f777bb1e18ce,64c800c48c6a43ce13ca8217,down,-1,0.75,0.05,3,0,0.1831,23,0,23,0,1,,,,,,,,,,
,,810631,001,2023-07-31_12h45.28.405,arm3_eps,2022.2.5,Win32,119.8465964,5ee95917bdb5522f9ee95e4f,64c7fed44a04f777bb1e18ce,64c800c48c6a43ce13ca8217,right,-1,0.75,0.05,3,-0.018256486,0.3501,24,0,24,0,1,,,,,,,,,,
,,810631,001,2023-07-31_12h45.28.405,arm3_eps,2022.2.5,Win32,119.8465964,5ee95917bdb5522f9ee95e4f,64c7fed44a04f777bb1e18ce,64c800c48c6a43ce13ca8217,right,-1,0.75,0.05,3,-0.017873047,0.15,25,0,25,0,1,,,,,,,,,,
,,810631,001,2023-07-31_12h45.28.405,arm3_eps,2022.2.5,Win32,119.8465964,5ee95917bdb5522f9ee95e4f,64c7fed44a04f777bb1e18ce,64c800c48c6a43ce13ca8217,right,-1,0.75,0.05,3,-0.025817991,0.1169,26,0,26,0,1,,,,,,,,,,
,,810631,001,2023-07-31_12h45.28.405,arm3_eps,2022.2.5,Win32,119.8465964,5ee95917bdb5522f9ee95e4f,64c7fed44a04f777bb1e18ce,64c800c48c6a43ce13ca8217,right,-1,0.75,0.05,3,-0.035498177,0.1334,27,0,27,0,1,,,,,,,,,,
,,810631,001,2023-07-31_12h45.28.405,arm3_eps,2022.2.5,Win32,119.8465964,5ee95917bdb5522f9ee95e4f,64c7fed44a04f777bb1e18ce,64c800c48c6a43ce13ca8217,right,-1,0.75,0.05,3,-0.015157134,0.117,28,0,28,0,1,,,,,,,,,,
,,810631,001,2023-07-31_12h45.28.405,arm3_eps,2022.2.5,Win32,119.8465964,5ee95917bdb5522f9ee95e4f,64c7fed44a04f777bb1e18ce,64c800c48c6a43ce13ca8217,down,-1,0.75,0.05,4,0,0.1669,29,0,29,0,1,,,,,,,,,,
,,810631,001,2023-07-31_12h45.28.405,arm3_eps,2022.2.5,Win32,119.8465964,5ee95917bdb5522f9ee95e4f,64c7fed44a04f777bb1e18ce,64c800c48c6a43ce13ca8217,right,-1,0.75,0.05,4,-0.004831979,0.2698,30,0,30,0,1,,,,,,,,,,
,,810631,001,2023-07-31_12h45.28.405,arm3_eps,2022.2.5,Win32,119.8465964,5ee95917bdb5522f9ee95e4f,64c7fed44a04f777bb1e18ce,64c800c48c6a43ce13ca8217,right,-1,0.75,0.05,4,-0.012204797,0.1335,31,0,31,0,1,,,,,,,,,,
,,810631,001,2023-07-31_12h45.28.405,arm3_eps,2022.2.5,Win32,119.8465964,5ee95917bdb5522f9ee95e4f,64c7fed44a04f777bb1e18ce,64c800c48c6a43ce13ca8217,right,-1,0.75,0.05,4,-0.024428283,0.1503,32,0,32,0,1,,,,,,,,,,
,,810631,001,2023-07-31_12h45.28.405,arm3_eps,2022.2.5,Win32,119.8465964,5ee95917bdb5522f9ee95e4f,64c7fed44a04f777bb1e18ce,64c800c48c6a43ce13ca8217,right,-1,0.75,0.05,4,-0.01774853,0.117,33,0,33,0,1,,,,,,,,,,
,,810631,001,2023-07-31_12h45.28.405,arm3_eps,2022.2.5,Win32,119.8465964,5ee95917bdb5522f9ee95e4f,64c7fed44a04f777bb1e18ce,64c800c48c6a43ce13ca8217,right,-1,0.75,0.05,4,-0.016519141,0.1142,34,0,34,0,1,,,,,,,,,,
,,810631,001,2023-07-31_12h45.28.405,arm3_eps,2022.2.5,Win32,119.8465964,5ee95917bdb5522f9ee95e4f,64c7fed44a04f777bb1e18ce,64c800c48c6a43ce13ca8217,right,-1,0.75,0.05,4,-0.015566304,0.1171,35,0,35,0,1,,,,,,,,,,
,,810631,001,2023-07-31_12h45.28.405,arm3_eps,2022.2.5,Win32,119.8465964,5ee95917bdb5522f9ee95e4f,64c7fed44a04f777bb1e18ce,64c800c48c6a43ce13ca8217,down,-1,0.75,0.05,5,0,0.1192,36,0,36,0,1,,,,,,,,,,
,,810631,001,2023-07-31_12h45.28.405,arm3_eps,2022.2.5,Win32,119.8465964,5ee95917bdb5522f9ee95e4f,64c7fed44a04f777bb1e18ce,64c800c48c6a43ce13ca8217,right,-1,0.75,0.05,5,-0.014760859,0.2176,37,0,37,0,1,,,,,,,,,,
,,810631,001,2023-07-31_12h45.28.405,arm3_eps,2022.2.5,Win32,119.8465964,5ee95917bdb5522f9ee95e4f,64c7fed44a04f777bb1e18ce,64c800c48c6a43ce13ca8217,right,-1,0.75,0.05,5,-0.031099771,0.1501,38,0,38,0,1,,,,,,,,,,
,,810631,001,2023-07-31_12h45.28.405,arm3_eps,2022.2.5,Win32,119.8465964,5ee95917bdb5522f9ee95e4f,64c7fed44a04f777bb1e18ce,64c800c48c6a43ce13ca8217,right,-1,0.75,0.05,5,-0.090746,0.1504,39,0,39,0,1,,,,,,,,,,
,,810631,001,2023-07-31_12h45.28.405,arm3_eps,2022.2.5,Win32,119.8465964,5ee95917bdb5522f9ee95e4f,64c7fed44a04f777bb1e18ce,64c800c48c6a43ce13ca8217,right,-1,0.75,0.05,5,-0.067044996,0.1147,40,0,40,0,1,,,,,,,,,,
,,810631,001,2023-07-31_12h45.28.405,arm3_eps,2022.2.5,Win32,119.8465964,5ee95917bdb5522f9ee95e4f,64c7fed44a04f777bb1e18ce,64c800c48c6a43ce13ca8217,right,-1,0.75,0.05,5,-0.066010215,0.1335,41,0,41,0,1,,,,,,,,,,
,,810631,001,2023-07-31_12h45.28.405,arm3_eps,2022.2.5,Win32,119.8465964,5ee95917bdb5522f9ee95e4f,64c7fed44a04f777bb1e18ce,64c800c48c6a43ce13ca8217,down,-1,0.75,0.05,6,0,0.1339,42,0,42,0,1,,,,,,,,,,
,,810631,001,2023-07-31_12h45.28.405,arm3_eps,2022.2.5,Win32,119.8465964,5ee95917bdb5522f9ee95e4f,64c7fed44a04f777bb1e18ce,64c800c48c6a43ce13ca8217,right,-1,0.75,0.05,6,0.014263769,0.2504,43,0,43,0,1,,,,,,,,,,
,,810631,001,2023-07-31_12h45.28.405,arm3_eps,2022.2.5,Win32,119.8465964,5ee95917bdb5522f9ee95e4f,64c7fed44a04f777bb1e18ce,64c800c48c6a43ce13ca8217,right,-1,0.75,0.05,6,0.016057711,0.1335,44,0,44,0,1,,,,,,,,,,
,,810631,001,2023-07-31_12h45.28.405,arm3_eps,2022.2.5,Win32,119.8465964,5ee95917bdb5522f9ee95e4f,64c7fed44a04f777bb1e18ce,64c800c48c6a43ce13ca8217,right,-1,0.75,0.05,6,0.033796477,0.1503,45,0,45,0,1,,,,,,,,,,
,,810631,001,2023-07-31_12h45.28.405,arm3_eps,2022.2.5,Win32,119.8465964,5ee95917bdb5522f9ee95e4f,64c7fed44a04f777bb1e18ce,64c800c48c6a43ce13ca8217,right,-1,0.75,0.05,6,0.024846812,0.1337,46,0,46,0,1,,,,,,,,,,
,,810631,001,2023-07-31_12h45.28.405,arm3_eps,2022.2.5,Win32,119.8465964,5ee95917bdb5522f9ee95e4f,64c7fed44a04f777bb1e18ce,64c800c48c6a43ce13ca8217,right,-1,0.75,0.05,6,0.042822798,0.2836,47,0,47,0,1,,,,,,,,,,
,,810631,001,2023-07-31_12h45.28.405,arm3_eps,2022.2.5,Win32,119.8465964,5ee95917bdb5522f9ee95e4f,64c7fed44a04f777bb1e18ce,64c800c48c6a43ce13ca8217,up,-1,0.75,0.05,6,0,0.117,48,0,48,0,1,,,,,,,,,,
,,810631,001,2023-07-31_12h45.28.405,arm3_eps,2022.2.5,Win32,119.8465964,5ee95917bdb5522f9ee95e4f,64c7fed44a04f777bb1e18ce,64c800c48c6a43ce13ca8217,right,-1,0.75,0.05,6,-0.002932288,0.1858,49,0,49,0,1,,,,,,,,,,
space,6.4335,810631,001,2023-07-31_12h45.28.405,arm3_eps,2022.2.5,Win32,119.8465964,5ee95917bdb5522f9ee95e4f,64c7fed44a04f777bb1e18ce,64c800c48c6a43ce13ca8217,,,,,,,,,,,,,,,,,,,,,,
space,0.7003,810631,001,2023-07-31_12h45.28.405,arm3_eps,2022.2.5,Win32,119.8465964,5ee95917bdb5522f9ee95e4f,64c7fed44a04f777bb1e18ce,64c800c48c6a43ce13ca8217,,,,,,,,,,,,,,,,,,,,,,
,,810631,001,2023-07-31_12h45.28.405,arm3_eps,2022.2.5,Win32,119.8465964,5ee95917bdb5522f9ee95e4f,64c7fed44a04f777bb1e18ce,64c800c48c6a43ce13ca8217,right,-1,0.75,0.5,0,-0.017736597,0.2494,0,0,0,0,1,,,,,,,,,,
,,810631,001,2023-07-31_12h45.28.405,arm3_eps,2022.2.5,Win32,119.8465964,5ee95917bdb5522f9ee95e4f,64c7fed44a04f777bb1e18ce,64c800c48c6a43ce13ca8217,right,-1,0.75,0.5,0,0.002679208,0.1669,1,0,1,0,1,,,,,,,,,,
,,810631,001,2023-07-31_12h45.28.405,arm3_eps,2022.2.5,Win32,119.8465964,5ee95917bdb5522f9ee95e4f,64c7fed44a04f777bb1e18ce,64c800c48c6a43ce13ca8217,right,-1,0.75,0.5,0,-0.022007685,0.1336,2,0,2,0,1,,,,,,,,,,
,,810631,001,2023-07-31_12h45.28.405,arm3_eps,2022.2.5,Win32,119.8465964,5ee95917bdb5522f9ee95e4f,64c7fed44a04f777bb1e18ce,64c800c48c6a43ce13ca8217,right,-1,0.75,0.5,0,0.001120745,0.1165,3,0,3,0,1,,,,,,,,,,
,,810631,001,2023-07-31_12h45.28.405,arm3_eps,2022.2.5,Win32,119.8465964,5ee95917bdb5522f9ee95e4f,64c7fed44a04f777bb1e18ce,64c800c48c6a43ce13ca8217,right,-1,0.75,0.5,0,-0.018669669,0.1674,4,0,4,0,1,,,,,,,,,,
,,810631,001,2023-07-31_12h45.28.405,arm3_eps,2022.2.5,Win32,119.8465964,5ee95917bdb5522f9ee95e4f,64c7fed44a04f777bb1e18ce,64c800c48c6a43ce13ca8217,down,-1,0.75,0.5,1,0,0.1004,5,0,5,0,1,,,,,,,,,,
,,810631,001,2023-07-31_12h45.28.405,arm3_eps,2022.2.5,Win32,119.8465964,5ee95917bdb5522f9ee95e4f,64c7fed44a04f777bb1e18ce,64c800c48c6a43ce13ca8217,right,-1,0.75,0.5,1,-0.006058605,0.1835,6,0,6,0,1,,,,,,,,,,
,,810631,001,2023-07-31_12h45.28.405,arm3_eps,2022.2.5,Win32,119.8465964,5ee95917bdb5522f9ee95e4f,64c7fed44a04f777bb1e18ce,64c800c48c6a43ce13ca8217,right,-1,0.75,0.5,1,-0.046322498,0.1173,7,0,7,0,1,,,,,,,,,,
,,810631,001,2023-07-31_12h45.28.405,arm3_eps,2022.2.5,Win32,119.8465964,5ee95917bdb5522f9ee95e4f,64c7fed44a04f777bb1e18ce,64c800c48c6a43ce13ca8217,right,-1,0.75,0.5,1,-0.022617579,0.1332,8,0,8,0,1,,,,,,,,,,
,,810631,001,2023-07-31_12h45.28.405,arm3_eps,2022.2.5,Win32,119.8465964,5ee95917bdb5522f9ee95e4f,64c7fed44a04f777bb1e18ce,64c800c48c6a43ce13ca8217,right,-1,0.75,0.5,1,-0.034808442,0.1335,9,0,9,0,1,,,,,,,,,,
,,810631,001,2023-07-31_12h45.28.405,arm3_eps,2022.2.5,Win32,119.8465964,5ee95917bdb5522f9ee95e4f,64c7fed44a04f777bb1e18ce,64c800c48c6a43ce13ca8217,right,-1,0.75,0.5,1,-0.01106407,0.1165,10,0,10,0,1,,,,,,,,,,
,,810631,001,2023-07-31_12h45.28.405,arm3_eps,2022.2.5,Win32,119.8465964,5ee95917bdb5522f9ee95e4f,64c7fed44a04f777bb1e18ce,64c800c48c6a43ce13ca8217,down,1,0.75,0.5,2,0,0.1503,11,0,11,0,1,,,,,,,,,,
,,810631,001,2023-07-31_12h45.28.405,arm3_eps,2022.2.5,Win32,119.8465964,5ee95917bdb5522f9ee95e4f,64c7fed44a04f777bb1e18ce,64c800c48c6a43ce13ca8217,right,1,0.75,0.5,2,0.017263333,0.2666,12,0,12,0,1,,,,,,,,,,
,,810631,001,2023-07-31_12h45.28.405,arm3_eps,2022.2.5,Win32,119.8465964,5ee95917bdb5522f9ee95e4f,64c7fed44a04f777bb1e18ce,64c800c48c6a43ce13ca8217,right,1,0.75,0.5,2,0.032035013,0.1331,13,0,13,0,1,,,,,,,,,,
,,810631,001,2023-07-31_12h45.28.405,arm3_eps,2022.2.5,Win32,119.8465964,5ee95917bdb5522f9ee95e4f,64c7fed44a04f777bb1e18ce,64c800c48c6a43ce13ca8217,right,1,0.75,0.5,2,0.059762605,0.1335,14,0,14,0,1,,,,,,,,,,
,,810631,001,2023-07-31_12h45.28.405,arm3_eps,2022.2.5,Win32,119.8465964,5ee95917bdb5522f9ee95e4f,64c7fed44a04f777bb1e18ce,64c800c48c6a43ce13ca8217,right,1,0.75,0.5,2,0.07356143,0.1335,15,0,15,0,1,,,,,,,,,,
,,810631,001,2023-07-31_12h45.28.405,arm3_eps,2022.2.5,Win32,119.8465964,5ee95917bdb5522f9ee95e4f,64c7fed44a04f777bb1e18ce,64c800c48c6a43ce13ca8217,right,1,0.75,0.5,2,0.089432897,0.1167,16,0,16,0,1,,,,,,,,,,
,,810631,001,2023-07-31_12h45.28.405,arm3_eps,2022.2.5,Win32,119.8465964,5ee95917bdb5522f9ee95e4f,64c7fed44a04f777bb1e18ce,64c800c48c6a43ce13ca8217,up,-1,0.75,0.5,3,0,0.1504,17,0,17,0,1,,,,,,,,,,
,,810631,001,2023-07-31_12h45.28.405,arm3_eps,2022.2.5,Win32,119.8465964,5ee95917bdb5522f9ee95e4f,64c7fed44a04f777bb1e18ce,64c800c48c6a43ce13ca8217,right,-1,0.75,0.5,3,0.010118126,0.2171,18,0,18,0,1,,,,,,,,,,
,,810631,001,2023-07-31_12h45.28.405,arm3_eps,2022.2.5,Win32,119.8465964,5ee95917bdb5522f9ee95e4f,64c7fed44a04f777bb1e18ce,64c800c48c6a43ce13ca8217,right,-1,0.75,0.5,3,-0.038824133,0.1334,19,0,19,0,1,,,,,,,,,,
,,810631,001,2023-07-31_12h45.28.405,arm3_eps,2022.2.5,Win32,119.8465964,5ee95917bdb5522f9ee95e4f,64c7fed44a04f777bb1e18ce,64c800c48c6a43ce13ca8217,right,-1,0.75,0.5,3,-0.015987717,0.1505,20,0,20,0,1,,,,,,,,,,
,,810631,001,2023-07-31_12h45.28.405,arm3_eps,2022.2.5,Win32,119.8465964,5ee95917bdb5522f9ee95e4f,64c7fed44a04f777bb1e18ce,64c800c48c6a43ce13ca8217,right,-1,0.75,0.5,3,0.019068936,0.1335,21,0,21,0,1,,,,,,,,,,
,,810631,001,2023-07-31_12h45.28.405,arm3_eps,2022.2.5,Win32,119.8465964,5ee95917bdb5522f9ee95e4f,64c7fed44a04f777bb1e18ce,64c800c48c6a43ce13ca8217,right,-1,0.75,0.5,3,-0.013633166,0.1334,22,0,22,0,1,,,,,,,,,,
,,810631,001,2023-07-31_12h45.28.405,arm3_eps,2022.2.5,Win32,119.8465964,5ee95917bdb5522f9ee95e4f,64c7fed44a04f777bb1e18ce,64c800c48c6a43ce13ca8217,right,-1,0.75,0.5,3,-0.050282277,0.1168,23,0,23,0,1,,,,,,,,,,
,,810631,001,2023-07-31_12h45.28.405,arm3_eps,2022.2.5,Win32,119.8465964,5ee95917bdb5522f9ee95e4f,64c7fed44a04f777bb1e18ce,64c800c48c6a43ce13ca8217,up,1,0.75,0.5,2,0,0.1002,24,0,24,0,1,,,,,,,,,,
,,810631,001,2023-07-31_12h45.28.405,arm3_eps,2022.2.5,Win32,119.8465964,5ee95917bdb5522f9ee95e4f,64c7fed44a04f777bb1e18ce,64c800c48c6a43ce13ca8217,right,1,0.75,0.5,2,0.024826035,0.2335,25,0,25,0,1,,,,,,,,,,
,,810631,001,2023-07-31_12h45.28.405,arm3_eps,2022.2.5,Win32,119.8465964,5ee95917bdb5522f9ee95e4f,64c7fed44a04f777bb1e18ce,64c800c48c6a43ce13ca8217,right,1,0.75,0.5,2,0.034253541,0.1333,26,0,26,0,1,,,,,,,,,,
,,810631,001,2023-07-31_12h45.28.405,arm3_eps,2022.2.5,Win32,119.8465964,5ee95917bdb5522f9ee95e4f,64c7fed44a04f777bb1e18ce,64c800c48c6a43ce13ca8217,right,1,0.75,0.5,2,0.045807722,0.1503,27,0,27,0,1,,,,,,,,,,
,,810631,001,2023-07-31_12h45.28.405,arm3_eps,2022.2.5,Win32,119.8465964,5ee95917bdb5522f9ee95e4f,64c7fed44a04f777bb1e18ce,64c800c48c6a43ce13ca8217,right,1,0.75,0.5,2,0.071639531,0.1503,28,0,28,0,1,,,,,,,,,,
,,810631,001,2023-07-31_12h45.28.405,arm3_eps,2022.2.5,Win32,119.8465964,5ee95917bdb5522f9ee95e4f,64c7fed44a04f777bb1e18ce,64c800c48c6a43ce13ca8217,right,1,0.75,0.5,2,0.066431653,0.1169,29,0,29,0,1,,,,,,,,,,
,,810631,001,2023-07-31_12h45.28.405,arm3_eps,2022.2.5,Win32,119.8465964,5ee95917bdb5522f9ee95e4f,64c7fed44a04f777bb1e18ce,64c800c48c6a43ce13ca8217,up,1,0.75,0.5,3,0,0.4502,30,0,30,0,1,,,,,,,,,,
,,810631,001,2023-07-31_12h45.28.405,arm3_eps,2022.2.5,Win32,119.8465964,5ee95917bdb5522f9ee95e4f,64c7fed44a04f777bb1e18ce,64c800c48c6a43ce13ca8217,right,1,0.75,0.5,3,0.023737777,0.2001,31,0,31,0,1,,,,,,,,,,
,,810631,001,2023-07-31_12h45.28.405,arm3_eps,2022.2.5,Win32,119.8465964,5ee95917bdb5522f9ee95e4f,64c7fed44a04f777bb1e18ce,64c800c48c6a43ce13ca8217,right,1,0.75,0.5,3,0.037931092,0.1168,32,0,32,0,1,,,,,,,,,,
,,810631,001,2023-07-31_12h45.28.405,arm3_eps,2022.2.5,Win32,119.8465964,5ee95917bdb5522f9ee95e4f,64c7fed44a04f777bb1e18ce,64c800c48c6a43ce13ca8217,right,1,0.75,0.5,3,0.072711073,0.1334,33,0,33,0,1,,,,,,,,,,
,,810631,001,2023-07-31_12h45.28.405,arm3_eps,2022.2.5,Win32,119.8465964,5ee95917bdb5522f9ee95e4f,64c7fed44a04f777bb1e18ce,64c800c48c6a43ce13ca8217,right,1,0.75,0.5,3,0.077397787,0.167,34,0,34,0,1,,,,,,,,,,
,,810631,001,2023-07-31_12h45.28.405,arm3_eps,2022.2.5,Win32,119.8465964,5ee95917bdb5522f9ee95e4f,64c7fed44a04f777bb1e18ce,64c800c48c6a43ce13ca8217,right,1,0.75,0.5,3,0.070843851,0.117,35,0,35,0,1,,,,,,,,,,
,,810631,001,2023-07-31_12h45.28.405,arm3_eps,2022.2.5,Win32,119.8465964,5ee95917bdb5522f9ee95e4f,64c7fed44a04f777bb1e18ce,64c800c48c6a43ce13ca8217,right,1,0.75,0.5,3,0.065143911,0.1338,36,0,36,0,1,,,,,,,,,,
,,810631,001,2023-07-31_12h45.28.405,arm3_eps,2022.2.5,Win32,119.8465964,5ee95917bdb5522f9ee95e4f,64c7fed44a04f777bb1e18ce,64c800c48c6a43ce13ca8217,up,-1,0.75,0.5,4,0,0.2341,37,0,37,0,1,,,,,,,,,,
,,810631,001,2023-07-31_12h45.28.405,arm3_eps,2022.2.5,Win32,119.8465964,5ee95917bdb5522f9ee95e4f,64c7fed44a04f777bb1e18ce,64c800c48c6a43ce13ca8217,right,-1,0.75,0.5,4,0.020702507,0.2172,38,0,38,0,1,,,,,,,,,,
,,810631,001,2023-07-31_12h45.28.405,arm3_eps,2022.2.5,Win32,119.8465964,5ee95917bdb5522f9ee95e4f,64c7fed44a04f777bb1e18ce,64c800c48c6a43ce13ca8217,right,-1,0.75,0.5,4,-0.001750488,0.1335,39,0,39,0,1,,,,,,,,,,
,,810631,001,2023-07-31_12h45.28.405,arm3_eps,2022.2.5,Win32,119.8465964,5ee95917bdb5522f9ee95e4f,64c7fed44a04f777bb1e18ce,64c800c48c6a43ce13ca8217,right,-1,0.75,0.5,4,-0.015099132,0.1838,40,0,40,0,1,,,,,,,,,,
,,810631,001,2023-07-31_12h45.28.405,arm3_eps,2022.2.5,Win32,119.8465964,5ee95917bdb5522f9ee95e4f,64c7fed44a04f777bb1e18ce,64c800c48c6a43ce13ca8217,right,-1,0.75,0.5,4,-0.044302106,0.1004,41,0,41,0,1,,,,,,,,,,
,,810631,001,2023-07-31_12h45.28.405,arm3_eps,2022.2.5,Win32,119.8465964,5ee95917bdb5522f9ee95e4f,64c7fed44a04f777bb1e18ce,64c800c48c6a43ce13ca8217,right,-1,0.75,0.5,4,-0.06665522,0.1336,42,0,42,0,1,,,,,,,,,,
,,810631,001,2023-07-31_12h45.28.405,arm3_eps,2022.2.5,Win32,119.8465964,5ee95917bdb5522f9ee95e4f,64c7fed44a04f777bb1e18ce,64c800c48c6a43ce13ca8217,right,-1,0.75,0.5,4,-0.067385668,0.1166,43,0,43,0,1,,,,,,,,,,
,,810631,001,2023-07-31_12h45.28.405,arm3_eps,2022.2.5,Win32,119.8465964,5ee95917bdb5522f9ee95e4f,64c7fed44a04f777bb1e18ce,64c800c48c6a43ce13ca8217,down,1,0.75,0.5,5,0,0.1503,44,0,44,0,1,,,,,,,,,,
,,810631,001,2023-07-31_12h45.28.405,arm3_eps,2022.2.5,Win32,119.8465964,5ee95917bdb5522f9ee95e4f,64c7fed44a04f777bb1e18ce,64c800c48c6a43ce13ca8217,right,1,0.75,0.5,5,-0.006011006,0.3339,45,0,45,0,1,,,,,,,,,,
,,810631,001,2023-07-31_12h45.28.405,arm3_eps,2022.2.5,Win32,119.8465964,5ee95917bdb5522f9ee95e4f,64c7fed44a04f777bb1e18ce,64c800c48c6a43ce13ca8217,right,1,0.75,0.5,5,-0.014814594,0.1501,46,0,46,0,1,,,,,,,,,,
,,810631,001,2023-07-31_12h45.28.405,arm3_eps,2022.2.5,Win32,119.8465964,5ee95917bdb5522f9ee95e4f,64c7fed44a04f777bb1e18ce,64c800c48c6a43ce13ca8217,right,1,0.75,0.5,5,0.00958581,0.1503,47,0,47,0,1,,,,,,,,,,
,,810631,001,2023-07-31_12h45.28.405,arm3_eps,2022.2.5,Win32,119.8465964,5ee95917bdb5522f9ee95e4f,64c7fed44a04f777bb1e18ce,64c800c48c6a43ce13ca8217,right,1,0.75,0.5,5,0.01350529,0.1335,48,0,48,0,1,,,,,,,,,,
,,810631,001,2023-07-31_12h45.28.405,arm3_eps,2022.2.5,Win32,119.8465964,5ee95917bdb5522f9ee95e4f,64c7fed44a04f777bb1e18ce,64c800c48c6a43ce13ca8217,right,1,0.75,0.5,5,0.059269944,0.1668,49,0,49,0,1,,,,,,,,,,
space,1.8833,810631,001,2023-07-31_12h45.28.405,arm3_eps,2022.2.5,Win32,119.8465964,5ee95917bdb5522f9ee95e4f,64c7fed44a04f777bb1e18ce,64c800c48c6a43ce13ca8217,,,,,,,,,,,,,,,,,,,,,,
space,2.4241,810631,001,2023-07-31_12h45.28.405,arm3_eps,2022.2.5,Win32,119.8465964,5ee95917bdb5522f9ee95e4f,64c7fed44a04f777bb1e18ce,64c800c48c6a43ce13ca8217,right,1,0.75,0.3714,0,0.003425447,0.267,,,,,,0,0,0,0,1,,,,,
,,810631,001,2023-07-31_12h45.28.405,arm3_eps,2022.2.5,Win32,119.8465964,5ee95917bdb5522f9ee95e4f,64c7fed44a04f777bb1e18ce,64c800c48c6a43ce13ca8217,right,1,0.75,0.3714,0,0.014502807,0.1336,,,,,,1,0,1,0,1,,,,,
,,810631,001,2023-07-31_12h45.28.405,arm3_eps,2022.2.5,Win32,119.8465964,5ee95917bdb5522f9ee95e4f,64c7fed44a04f777bb1e18ce,64c800c48c6a43ce13ca8217,right,1,0.75,0.3714,0,0.044127362,0.1387,,,,,,2,0,2,0,1,,,,,
,,810631,001,2023-07-31_12h45.28.405,arm3_eps,2022.2.5,Win32,119.8465964,5ee95917bdb5522f9ee95e4f,64c7fed44a04f777bb1e18ce,64c800c48c6a43ce13ca8217,right,1,0.75,0.3714,0,0.064935446,0.1167,,,,,,3,0,3,0,1,,,,,
,,810631,001,2023-07-31_12h45.28.405,arm3_eps,2022.2.5,Win32,119.8465964,5ee95917bdb5522f9ee95e4f,64c7fed44a04f777bb1e18ce,64c800c48c6a43ce13ca8217,right,1,0.75,0.3714,0,0.066134427,0.119,,,,,,4,0,4,0,1,,,,,
,,810631,001,2023-07-31_12h45.28.405,arm3_eps,2022.2.5,Win32,119.8465964,5ee95917bdb5522f9ee95e4f,64c7fed44a04f777bb1e18ce,64c800c48c6a43ce13ca8217,up,1,0.75,0.3714,1,0,0.2169,,,,,,5,0,5,0,1,,,,,
,,810631,001,2023-07-31_12h45.28.405,arm3_eps,2022.2.5,Win32,119.8465964,5ee95917bdb5522f9ee95e4f,64c7fed44a04f777bb1e18ce,64c800c48c6a43ce13ca8217,right,1,0.75,0.3714,1,0.043405113,0.2506,,,,,,6,0,6,0,1,,,,,
,,810631,001,2023-07-31_12h45.28.405,arm3_eps,2022.2.5,Win32,119.8465964,5ee95917bdb5522f9ee95e4f,64c7fed44a04f777bb1e18ce,64c800c48c6a43ce13ca8217,right,1,0.75,0.3714,1,0.029051028,0.1336,,,,,,7,0,7,0,1,,,,,
,,810631,001,2023-07-31_12h45.28.405,arm3_eps,2022.2.5,Win32,119.8465964,5ee95917bdb5522f9ee95e4f,64c7fed44a04f777bb1e18ce,64c800c48c6a43ce13ca8217,right,1,0.75,0.3714,1,0.053900715,0.1323,,,,,,8,0,8,0,1,,,,,
,,810631,001,2023-07-31_12h45.28.405,arm3_eps,2022.2.5,Win32,119.8465964,5ee95917bdb5522f9ee95e4f,64c7fed44a04f777bb1e18ce,64c800c48c6a43ce13ca8217,right,1,0.75,0.3714,1,0.042400919,0.1521,,,,,,9,0,9,0,1,,,,,
,,810631,001,2023-07-31_12h45.28.405,arm3_eps,2022.2.5,Win32,119.8465964,5ee95917bdb5522f9ee95e4f,64c7fed44a04f777bb1e18ce,64c800c48c6a43ce13ca8217,right,1,0.75,0.3714,1,0.073970807,0.1166,,,,,,10,0,10,0,1,,,,,
,,810631,001,2023-07-31_12h45.28.405,arm3_eps,2022.2.5,Win32,119.8465964,5ee95917bdb5522f9ee95e4f,64c7fed44a04f777bb1e18ce,64c800c48c6a43ce13ca8217,up,1,0.75,0.3714,1,0,0.2168,,,,,,11,0,11,0,1,,,,,
,,810631,001,2023-07-31_12h45.28.405,arm3_eps,2022.2.5,Win32,119.8465964,5ee95917bdb5522f9ee95e4f,64c7fed44a04f777bb1e18ce,64c800c48c6a43ce13ca8217,right,1,0.75,0.3714,1,-0.001023691,0.1835,,,,,,12,0,12,0,1,,,,,
,,810631,001,2023-07-31_12h45.28.405,arm3_eps,2022.2.5,Win32,119.8465964,5ee95917bdb5522f9ee95e4f,64c7fed44a04f777bb1e18ce,64c800c48c6a43ce13ca8217,right,1,0.75,0.3714,1,-0.002760081,0.1324,,,,,,13,0,13,0,1,,,,,
,,810631,001,2023-07-31_12h45.28.405,arm3_eps,2022.2.5,Win32,119.8465964,5ee95917bdb5522f9ee95e4f,64c7fed44a04f777bb1e18ce,64c800c48c6a43ce13ca8217,right,1,0.75,0.3714,1,-0.001513621,0.1335,,,,,,14,0,14,0,1,,,,,
,,810631,001,2023-07-31_12h45.28.405,arm3_eps,2022.2.5,Win32,119.8465964,5ee95917bdb5522f9ee95e4f,64c7fed44a04f777bb1e18ce,64c800c48c6a43ce13ca8217,right,1,0.75,0.3714,1,-0.021958313,0.1336,,,,,,15,0,15,0,1,,,,,
,,810631,001,2023-07-31_12h45.28.405,arm3_eps,2022.2.5,Win32,119.8465964,5ee95917bdb5522f9ee95e4f,64c7fed44a04f777bb1e18ce,64c800c48c6a43ce13ca8217,right,1,0.75,0.3714,1,-0.024064876,0.1336,,,,,,16,0,16,0,1,,,,,
,,810631,001,2023-07-31_12h45.28.405,arm3_eps,2022.2.5,Win32,119.8465964,5ee95917bdb5522f9ee95e4f,64c7fed44a04f777bb1e18ce,64c800c48c6a43ce13ca8217,right,1,0.75,0.3714,1,0.002894506,0.1002,,,,,,17,0,17,0,1,,,,,
,,810631,001,2023-07-31_12h45.28.405,arm3_eps,2022.2.5,Win32,119.8465964,5ee95917bdb5522f9ee95e4f,64c7fed44a04f777bb1e18ce,64c800c48c6a43ce13ca8217,down,-1,0.75,0.3714,0,0,0.1841,,,,,,18,0,18,0,1,,,,,
,,810631,001,2023-07-31_12h45.28.405,arm3_eps,2022.2.5,Win32,119.8465964,5ee95917bdb5522f9ee95e4f,64c7fed44a04f777bb1e18ce,64c800c48c6a43ce13ca8217,right,-1,0.75,0.3714,0,0.010978744,0.2846,,,,,,19,0,19,0,1,,,,,
,,810631,001,2023-07-31_12h45.28.405,arm3_eps,2022.2.5,Win32,119.8465964,5ee95917bdb5522f9ee95e4f,64c7fed44a04f777bb1e18ce,64c800c48c6a43ce13ca8217,right,-1,0.75,0.3714,0,0.027602565,0.1335,,,,,,20,0,20,0,1,,,,,
,,810631,001,2023-07-31_12h45.28.405,arm3_eps,2022.2.5,Win32,119.8465964,5ee95917bdb5522f9ee95e4f,64c7fed44a04f777bb1e18ce,64c800c48c6a43ce13ca8217,right,-1,0.75,0.3714,0,0.041294962,0.1164,,,,,,21,0,21,0,1,,,,,
,,810631,001,2023-07-31_12h45.28.405,arm3_eps,2022.2.5,Win32,119.8465964,5ee95917bdb5522f9ee95e4f,64c7fed44a04f777bb1e18ce,64c800c48c6a43ce13ca8217,right,-1,0.75,0.3714,0,0.045259036,0.1505,,,,,,22,0,22,0,1,,,,,
,,810631,001,2023-07-31_12h45.28.405,arm3_eps,2022.2.5,Win32,119.8465964,5ee95917bdb5522f9ee95e4f,64c7fed44a04f777bb1e18ce,64c800c48c6a43ce13ca8217,right,-1,0.75,0.3714,0,0.045506603,0.1169,,,,,,23,0,23,0,1,,,,,
,,810631,001,2023-07-31_12h45.28.405,arm3_eps,2022.2.5,Win32,119.8465964,5ee95917bdb5522f9ee95e4f,64c7fed44a04f777bb1e18ce,64c800c48c6a43ce13ca8217,up,1,0.75,0.3714,0,0,0.1694,,,,,,24,0,24,0,1,,,,,
,,810631,001,2023-07-31_12h45.28.405,arm3_eps,2022.2.5,Win32,119.8465964,5ee95917bdb5522f9ee95e4f,64c7fed44a04f777bb1e18ce,64c800c48c6a43ce13ca8217,right,1,0.75,0.3714,0,0.004857464,0.3002,,,,,,25,0,25,0,1,,,,,
,,810631,001,2023-07-31_12h45.28.405,arm3_eps,2022.2.5,Win32,119.8465964,5ee95917bdb5522f9ee95e4f,64c7fed44a04f777bb1e18ce,64c800c48c6a43ce13ca8217,right,1,0.75,0.3714,0,0.003989635,0.117,,,,,,26,0,26,0,1,,,,,
,,810631,001,2023-07-31_12h45.28.405,arm3_eps,2022.2.5,Win32,119.8465964,5ee95917bdb5522f9ee95e4f,64c7fed44a04f777bb1e18ce,64c800c48c6a43ce13ca8217,right,1,0.75,0.3714,0,0.031525949,0.1501,,,,,,27,0,27,0,1,,,,,
,,810631,001,2023-07-31_12h45.28.405,arm3_eps,2022.2.5,Win32,119.8465964,5ee95917bdb5522f9ee95e4f,64c7fed44a04f777bb1e18ce,64c800c48c6a43ce13ca8217,right,1,0.75,0.3714,0,0.036469472,0.1359,,,,,,28,0,28,0,1,,,,,
,,810631,001,2023-07-31_12h45.28.405,arm3_eps,2022.2.5,Win32,119.8465964,5ee95917bdb5522f9ee95e4f,64c7fed44a04f777bb1e18ce,64c800c48c6a43ce13ca8217,right,1,0.75,0.3714,0,0.054304508,0.1504,,,,,,29,0,29,0,1,,,,,
,,810631,001,2023-07-31_12h45.28.405,arm3_eps,2022.2.5,Win32,119.8465964,5ee95917bdb5522f9ee95e4f,64c7fed44a04f777bb1e18ce,64c800c48c6a43ce13ca8217,up,-1,0.75,0.3714,0,0,0.1336,,,,,,30,0,30,0,1,,,,,
,,810631,001,2023-07-31_12h45.28.405,arm3_eps,2022.2.5,Win32,119.8465964,5ee95917bdb5522f9ee95e4f,64c7fed44a04f777bb1e18ce,64c800c48c6a43ce13ca8217,right,-1,0.75,0.3714,0,0.003955717,0.2503,,,,,,31,0,31,0,1,,,,,
,,810631,001,2023-07-31_12h45.28.405,arm3_eps,2022.2.5,Win32,119.8465964,5ee95917bdb5522f9ee95e4f,64c7fed44a04f777bb1e18ce,64c800c48c6a43ce13ca8217,right,-1,0.75,0.3714,0,-0.00542517,0.1334,,,,,,32,0,32,0,1,,,,,
,,810631,001,2023-07-31_12h45.28.405,arm3_eps,2022.2.5,Win32,119.8465964,5ee95917bdb5522f9ee95e4f,64c7fed44a04f777bb1e18ce,64c800c48c6a43ce13ca8217,right,-1,0.75,0.3714,0,-0.032970468,0.1502,,,,,,33,0,33,0,1,,,,,
,,810631,001,2023-07-31_12h45.28.405,arm3_eps,2022.2.5,Win32,119.8465964,5ee95917bdb5522f9ee95e4f,64c7fed44a04f777bb1e18ce,64c800c48c6a43ce13ca8217,right,-1,0.75,0.3714,0,-0.050636876,0.1335,,,,,,34,0,34,0,1,,,,,
,,810631,001,2023-07-31_12h45.28.405,arm3_eps,2022.2.5,Win32,119.8465964,5ee95917bdb5522f9ee95e4f,64c7fed44a04f777bb1e18ce,64c800c48c6a43ce13ca8217,right,-1,0.75,0.3714,0,-0.028955712,0.1504,,,,,,35,0,35,0,1,,,,,
,,810631,001,2023-07-31_12h45.28.405,arm3_eps,2022.2.5,Win32,119.8465964,5ee95917bdb5522f9ee95e4f,64c7fed44a04f777bb1e18ce,64c800c48c6a43ce13ca8217,down,1,0.75,0.3714,1,0,0.1836,,,,,,36,0,36,0,1,,,,,
,,810631,001,2023-07-31_12h45.28.405,arm3_eps,2022.2.5,Win32,119.8465964,5ee95917bdb5522f9ee95e4f,64c7fed44a04f777bb1e18ce,64c800c48c6a43ce13ca8217,right,1,0.75,0.3714,1,0.016372838,0.2532,,,,,,37,0,37,0,1,,,,,
,,810631,001,2023-07-31_12h45.28.405,arm3_eps,2022.2.5,Win32,119.8465964,5ee95917bdb5522f9ee95e4f,64c7fed44a04f777bb1e18ce,64c800c48c6a43ce13ca8217,right,1,0.75,0.3714,1,0.019743732,0.1335,,,,,,38,0,38,0,1,,,,,
,,810631,001,2023-07-31_12h45.28.405,arm3_eps,2022.2.5,Win32,119.8465964,5ee95917bdb5522f9ee95e4f,64c7fed44a04f777bb1e18ce,64c800c48c6a43ce13ca8217,right,1,0.75,0.3714,1,0.035623966,0.1503,,,,,,39,0,39,0,1,,,,,
,,810631,001,2023-07-31_12h45.28.405,arm3_eps,2022.2.5,Win32,119.8465964,5ee95917bdb5522f9ee95e4f,64c7fed44a04f777bb1e18ce,64c800c48c6a43ce13ca8217,right,1,0.75,0.3714,1,0.032828876,0.1694,,,,,,40,0,40,0,1,,,,,
,,810631,001,2023-07-31_12h45.28.405,arm3_eps,2022.2.5,Win32,119.8465964,5ee95917bdb5522f9ee95e4f,64c7fed44a04f777bb1e18ce,64c800c48c6a43ce13ca8217,right,1,0.75,0.3714,1,0.026465365,0.1002,,,,,,41,0,41,0,1,,,,,
,,810631,001,2023-07-31_12h45.28.405,arm3_eps,2022.2.5,Win32,119.8465964,5ee95917bdb5522f9ee95e4f,64c7fed44a04f777bb1e18ce,64c800c48c6a43ce13ca8217,up,-1,0.75,0.3714,2,0,0.1844,,,,,,42,0,42,0,1,,,,,
,,810631,001,2023-07-31_12h45.28.405,arm3_eps,2022.2.5,Win32,119.8465964,5ee95917bdb5522f9ee95e4f,64c7fed44a04f777bb1e18ce,64c800c48c6a43ce13ca8217,right,-1,0.75,0.3714,2,-0.00522777,0.2169,,,,,,43,0,43,0,1,,,,,
,,810631,001,2023-07-31_12h45.28.405,arm3_eps,2022.2.5,Win32,119.8465964,5ee95917bdb5522f9ee95e4f,64c7fed44a04f777bb1e18ce,64c800c48c6a43ce13ca8217,right,-1,0.75,0.3714,2,-0.034333709,0.1503,,,,,,44,0,44,0,1,,,,,
,,810631,001,2023-07-31_12h45.28.405,arm3_eps,2022.2.5,Win32,119.8465964,5ee95917bdb5522f9ee95e4f,64c7fed44a04f777bb1e18ce,64c800c48c6a43ce13ca8217,right,-1,0.75,0.3714,2,-0.032549892,0.1361,,,,,,45,0,45,0,1,,,,,
,,810631,001,2023-07-31_12h45.28.405,arm3_eps,2022.2.5,Win32,119.8465964,5ee95917bdb5522f9ee95e4f,64c7fed44a04f777bb1e18ce,64c800c48c6a43ce13ca8217,right,-1,0.75,0.3714,2,-0.031216423,0.1335,,,,,,46,0,46,0,1,,,,,
,,810631,001,2023-07-31_12h45.28.405,arm3_eps,2022.2.5,Win32,119.8465964,5ee95917bdb5522f9ee95e4f,64c7fed44a04f777bb1e18ce,64c800c48c6a43ce13ca8217,right,-1,0.75,0.3714,2,-0.056046169,0.1026,,,,,,47,0,47,0,1,,,,,
,,810631,001,2023-07-31_12h45.28.405,arm3_eps,2022.2.5,Win32,119.8465964,5ee95917bdb5522f9ee95e4f,64c7fed44a04f777bb1e18ce,64c800c48c6a43ce13ca8217,down,1,0.75,0.3714,2,0,0.1687,,,,,,48,0,48,0,1,,,,,
,,810631,001,2023-07-31_12h45.28.405,arm3_eps,2022.2.5,Win32,119.8465964,5ee95917bdb5522f9ee95e4f,64c7fed44a04f777bb1e18ce,64c800c48c6a43ce13ca8217,right,1,0.75,0.3714,2,-0.017024393,0.1667,,,,,,49,0,49,0,1,,,,,
,,810631,001,2023-07-31_12h45.28.405,arm3_eps,2022.2.5,Win32,119.8465964,5ee95917bdb5522f9ee95e4f,64c7fed44a04f777bb1e18ce,64c800c48c6a43ce13ca8217,right,1,0.75,0.3714,2,-0.001101592,0.1637,,,,,,50,0,50,0,1,,,,,
,,810631,001,2023-07-31_12h45.28.405,arm3_eps,2022.2.5,Win32,119.8465964,5ee95917bdb5522f9ee95e4f,64c7fed44a04f777bb1e18ce,64c800c48c6a43ce13ca8217,right,1,0.75,0.3714,2,0.028167391,0.1341,,,,,,51,0,51,0,1,,,,,
,,810631,001,2023-07-31_12h45.28.405,arm3_eps,2022.2.5,Win32,119.8465964,5ee95917bdb5522f9ee95e4f,64c7fed44a04f777bb1e18ce,64c800c48c6a43ce13ca8217,right,1,0.75,0.3714,2,0.060246206,0.139,,,,,,52,0,52,0,1,,,,,
,,810631,001,2023-07-31_12h45.28.405,arm3_eps,2022.2.5,Win32,119.8465964,5ee95917bdb5522f9ee95e4f,64c7fed44a04f777bb1e18ce,64c800c48c6a43ce13ca8217,right,1,0.75,0.3714,2,0.089133193,0.1316,,,,,,53,0,53,0,1,,,,,
,,810631,001,2023-07-31_12h45.28.405,arm3_eps,2022.2.5,Win32,119.8465964,5ee95917bdb5522f9ee95e4f,64c7fed44a04f777bb1e18ce,64c800c48c6a43ce13ca8217,up,1,0.75,0.3714,3,0,0.167,,,,,,54,0,54,0,1,,,,,
,,810631,001,2023-07-31_12h45.28.405,arm3_eps,2022.2.5,Win32,119.8465964,5ee95917bdb5522f9ee95e4f,64c7fed44a04f777bb1e18ce,64c800c48c6a43ce13ca8217,right,1,0.75,0.3714,3,0.002152513,0.1838,,,,,,55,0,55,0,1,,,,,
,,810631,001,2023-07-31_12h45.28.405,arm3_eps,2022.2.5,Win32,119.8465964,5ee95917bdb5522f9ee95e4f,64c7fed44a04f777bb1e18ce,64c800c48c6a43ce13ca8217,right,1,0.75,0.3714,3,0.033466988,0.1328,,,,,,56,0,56,0,1,,,,,
,,810631,001,2023-07-31_12h45.28.405,arm3_eps,2022.2.5,Win32,119.8465964,5ee95917bdb5522f9ee95e4f,64c7fed44a04f777bb1e18ce,64c800c48c6a43ce13ca8217,right,1,0.75,0.3714,3,0.085358817,0.1486,,,,,,57,0,57,0,1,,,,,
,,810631,001,2023-07-31_12h45.28.405,arm3_eps,2022.2.5,Win32,119.8465964,5ee95917bdb5522f9ee95e4f,64c7fed44a04f777bb1e18ce,64c800c48c6a43ce13ca8217,right,1,0.75,0.3714,3,0.092525621,0.1353,,,,,,58,0,58,0,1,,,,,
,,810631,001,2023-07-31_12h45.28.405,arm3_eps,2022.2.5,Win32,119.8465964,5ee95917bdb5522f9ee95e4f,64c7fed44a04f777bb1e18ce,64c800c48c6a43ce13ca8217,right,1,0.75,0.3714,3,0.104692396,0.1334,,,,,,59,0,59,0,1,,,,,
,,810631,001,2023-07-31_12h45.28.405,arm3_eps,2022.2.5,Win32,119.8465964,5ee95917bdb5522f9ee95e4f,64c7fed44a04f777bb1e18ce,64c800c48c6a43ce13ca8217,up,-1,0.75,0.3714,4,0,0.1503,,,,,,60,0,60,0,1,,,,,
,,810631,001,2023-07-31_12h45.28.405,arm3_eps,2022.2.5,Win32,119.8465964,5ee95917bdb5522f9ee95e4f,64c7fed44a04f777bb1e18ce,64c800c48c6a43ce13ca8217,right,-1,0.75,0.3714,4,0.010991872,0.1683,,,,,,61,0,61,0,1,,,,,
,,810631,001,2023-07-31_12h45.28.405,arm3_eps,2022.2.5,Win32,119.8465964,5ee95917bdb5522f9ee95e4f,64c7fed44a04f777bb1e18ce,64c800c48c6a43ce13ca8217,right,-1,0.75,0.3714,4,0.00619068,0.1333,,,,,,62,0,62,0,1,,,,,
,,810631,001,2023-07-31_12h45.28.405,arm3_eps,2022.2.5,Win32,119.8465964,5ee95917bdb5522f9ee95e4f,64c7fed44a04f777bb1e18ce,64c800c48c6a43ce13ca8217,right,-1,0.75,0.3714,4,-0.020901874,0.167,,,,,,63,0,63,0,1,,,,,
,,810631,001,2023-07-31_12h45.28.405,arm3_eps,2022.2.5,Win32,119.8465964,5ee95917bdb5522f9ee95e4f,64c7fed44a04f777bb1e18ce,64c800c48c6a43ce13ca8217,right,-1,0.75,0.3714,4,-0.031113159,0.135,,,,,,64,0,64,0,1,,,,,
,,810631,001,2023-07-31_12h45.28.405,arm3_eps,2022.2.5,Win32,119.8465964,5ee95917bdb5522f9ee95e4f,64c7fed44a04f777bb1e18ce,64c800c48c6a43ce13ca8217,right,-1,0.75,0.3714,4,-0.026805391,0.117,,,,,,65,0,65,0,1,,,,,
,,810631,001,2023-07-31_12h45.28.405,arm3_eps,2022.2.5,Win32,119.8465964,5ee95917bdb5522f9ee95e4f,64c7fed44a04f777bb1e18ce,64c800c48c6a43ce13ca8217,down,1,0.75,0.3714,5,0,0.1358,,,,,,66,0,66,0,1,,,,,
,,810631,001,2023-07-31_12h45.28.405,arm3_eps,2022.2.5,Win32,119.8465964,5ee95917bdb5522f9ee95e4f,64c7fed44a04f777bb1e18ce,64c800c48c6a43ce13ca8217,right,1,0.75,0.3714,5,0.005914637,0.1847,,,,,,67,0,67,0,1,,,,,
,,810631,001,2023-07-31_12h45.28.405,arm3_eps,2022.2.5,Win32,119.8465964,5ee95917bdb5522f9ee95e4f,64c7fed44a04f777bb1e18ce,64c800c48c6a43ce13ca8217,right,1,0.75,0.3714,5,0.027925888,0.1167,,,,,,68,0,68,0,1,,,,,
,,810631,001,2023-07-31_12h45.28.405,arm3_eps,2022.2.5,Win32,119.8465964,5ee95917bdb5522f9ee95e4f,64c7fed44a04f777bb1e18ce,64c800c48c6a43ce13ca8217,right,1,0.75,0.3714,5,-0.000416624,0.1366,,,,,,69,0,69,0,1,,,,,
,,810631,001,2023-07-31_12h45.28.405,arm3_eps,2022.2.5,Win32,119.8465964,5ee95917bdb5522f9ee95e4f,64c7fed44a04f777bb1e18ce,64c800c48c6a43ce13ca8217,right,1,0.75,0.3714,5,0.01893585,0.1502,,,,,,70,0,70,0,1,,,,,
,,810631,001,2023-07-31_12h45.28.405,arm3_eps,2022.2.5,Win32,119.8465964,5ee95917bdb5522f9ee95e4f,64c7fed44a04f777bb1e18ce,64c800c48c6a43ce13ca8217,right,1,0.75,0.3714,5,0.067336118,0.1159,,,,,,71,0,71,0,1,,,,,
,,810631,001,2023-07-31_12h45.28.405,arm3_eps,2022.2.5,Win32,119.8465964,5ee95917bdb5522f9ee95e4f,64c7fed44a04f777bb1e18ce,64c800c48c6a43ce13ca8217,up,-1,0.75,0.3714,6,0,0.2003,,,,,,72,0,72,0,1,,,,,
,,810631,001,2023-07-31_12h45.28.405,arm3_eps,2022.2.5,Win32,119.8465964,5ee95917bdb5522f9ee95e4f,64c7fed44a04f777bb1e18ce,64c800c48c6a43ce13ca8217,right,-1,0.75,0.3714,6,-0.051225699,0.1667,,,,,,73,0,73,0,1,,,,,
,,810631,001,2023-07-31_12h45.28.405,arm3_eps,2022.2.5,Win32,119.8465964,5ee95917bdb5522f9ee95e4f,64c7fed44a04f777bb1e18ce,64c800c48c6a43ce13ca8217,right,-1,0.75,0.3714,6,-0.06711496,0.1521,,,,,,74,0,74,0,1,,,,,
,,810631,001,2023-07-31_12h45.28.405,arm3_eps,2022.2.5,Win32,119.8465964,5ee95917bdb5522f9ee95e4f,64c7fed44a04f777bb1e18ce,64c800c48c6a43ce13ca8217,right,-1,0.75,0.3714,6,-0.100539306,0.1336,,,,,,75,0,75,0,1,,,,,
,,810631,001,2023-07-31_12h45.28.405,arm3_eps,2022.2.5,Win32,119.8465964,5ee95917bdb5522f9ee95e4f,64c7fed44a04f777bb1e18ce,64c800c48c6a43ce13ca8217,right,-1,0.75,0.3714,6,-0.136005591,0.1669,,,,,,76,0,76,0,1,,,,,
,,810631,001,2023-07-31_12h45.28.405,arm3_eps,2022.2.5,Win32,119.8465964,5ee95917bdb5522f9ee95e4f,64c7fed44a04f777bb1e18ce,64c800c48c6a43ce13ca8217,right,-1,0.75,0.3714,6,-0.154854395,0.1169,,,,,,77,0,77,0,1,,,,,
,,810631,001,2023-07-31_12h45.28.405,arm3_eps,2022.2.5,Win32,119.8465964,5ee95917bdb5522f9ee95e4f,64c7fed44a04f777bb1e18ce,64c800c48c6a43ce13ca8217,down,1,0.75,0.3714,6,0,0.1001,,,,,,78,0,78,0,1,,,,,
,,810631,001,2023-07-31_12h45.28.405,arm3_eps,2022.2.5,Win32,119.8465964,5ee95917bdb5522f9ee95e4f,64c7fed44a04f777bb1e18ce,64c800c48c6a43ce13ca8217,right,1,0.75,0.3714,6,-0.011938429,0.1666,,,,,,79,0,79,0,1,,,,,
,,810631,001,2023-07-31_12h45.28.405,arm3_eps,2022.2.5,Win32,119.8465964,5ee95917bdb5522f9ee95e4f,64c7fed44a04f777bb1e18ce,64c800c48c6a43ce13ca8217,right,1,0.75,0.3714,6,-0.004394343,0.1504,,,,,,80,0,80,0,1,,,,,
,,810631,001,2023-07-31_12h45.28.405,arm3_eps,2022.2.5,Win32,119.8465964,5ee95917bdb5522f9ee95e4f,64c7fed44a04f777bb1e18ce,64c800c48c6a43ce13ca8217,right,1,0.75,0.3714,6,-0.003972671,0.1336,,,,,,81,0,81,0,1,,,,,
,,810631,001,2023-07-31_12h45.28.405,arm3_eps,2022.2.5,Win32,119.8465964,5ee95917bdb5522f9ee95e4f,64c7fed44a04f777bb1e18ce,64c800c48c6a43ce13ca8217,right,1,0.75,0.3714,6,0.020227476,0.1502,,,,,,82,0,82,0,1,,,,,
,,810631,001,2023-07-31_12h45.28.405,arm3_eps,2022.2.5,Win32,119.8465964,5ee95917bdb5522f9ee95e4f,64c7fed44a04f777bb1e18ce,64c800c48c6a43ce13ca8217,up,1,0.75,0.3714,7,0,0.2836,,,,,,83,0,83,0,1,,,,,
,,810631,001,2023-07-31_12h45.28.405,arm3_eps,2022.2.5,Win32,119.8465964,5ee95917bdb5522f9ee95e4f,64c7fed44a04f777bb1e18ce,64c800c48c6a43ce13ca8217,right,1,0.75,0.3714,7,0.01637397,0.1836,,,,,,84,0,84,0,1,,,,,
,,810631,001,2023-07-31_12h45.28.405,arm3_eps,2022.2.5,Win32,119.8465964,5ee95917bdb5522f9ee95e4f,64c7fed44a04f777bb1e18ce,64c800c48c6a43ce13ca8217,right,1,0.75,0.3714,7,0.033946803,0.117,,,,,,85,0,85,0,1,,,,,
,,810631,001,2023-07-31_12h45.28.405,arm3_eps,2022.2.5,Win32,119.8465964,5ee95917bdb5522f9ee95e4f,64c7fed44a04f777bb1e18ce,64c800c48c6a43ce13ca8217,right,1,0.75,0.3714,7,0.06822385,0.1335,,,,,,86,0,86,0,1,,,,,
,,810631,001,2023-07-31_12h45.28.405,arm3_eps,2022.2.5,Win32,119.8465964,5ee95917bdb5522f9ee95e4f,64c7fed44a04f777bb1e18ce,64c800c48c6a43ce13ca8217,right,1,0.75,0.3714,7,0.080494929,0.1503,,,,,,87,0,87,0,1,,,,,
,,810631,001,2023-07-31_12h45.28.405,arm3_eps,2022.2.5,Win32,119.8465964,5ee95917bdb5522f9ee95e4f,64c7fed44a04f777bb1e18ce,64c800c48c6a43ce13ca8217,right,1,0.75,0.3714,7,0.092433189,0.1524,,,,,,88,0,88,0,1,,,,,
,,810631,001,2023-07-31_12h45.28.405,arm3_eps,2022.2.5,Win32,119.8465964,5ee95917bdb5522f9ee95e4f,64c7fed44a04f777bb1e18ce,64c800c48c6a43ce13ca8217,up,1,0.75,0.3714,7,0,0.1668,,,,,,89,0,89,0,1,,,,,
,,810631,001,2023-07-31_12h45.28.405,arm3_eps,2022.2.5,Win32,119.8465964,5ee95917bdb5522f9ee95e4f,64c7fed44a04f777bb1e18ce,64c800c48c6a43ce13ca8217,right,1,0.75,0.3714,7,0.00477603,0.1357,,,,,,90,0,90,0,1,,,,,
,,810631,001,2023-07-31_12h45.28.405,arm3_eps,2022.2.5,Win32,119.8465964,5ee95917bdb5522f9ee95e4f,64c7fed44a04f777bb1e18ce,64c800c48c6a43ce13ca8217,right,1,0.75,0.3714,7,0.011244996,0.1377,,,,,,91,0,91,0,1,,,,,
,,810631,001,2023-07-31_12h45.28.405,arm3_eps,2022.2.5,Win32,119.8465964,5ee95917bdb5522f9ee95e4f,64c7fed44a04f777bb1e18ce,64c800c48c6a43ce13ca8217,right,1,0.75,0.3714,7,0.027500571,0.1334,,,,,,92,0,92,0,1,,,,,
,,810631,001,2023-07-31_12h45.28.405,arm3_eps,2022.2.5,Win32,119.8465964,5ee95917bdb5522f9ee95e4f,64c7fed44a04f777bb1e18ce,64c800c48c6a43ce13ca8217,right,1,0.75,0.3714,7,0.016164091,0.1503,,,,,,93,0,93,0,1,,,,,
,,810631,001,2023-07-31_12h45.28.405,arm3_eps,2022.2.5,Win32,119.8465964,5ee95917bdb5522f9ee95e4f,64c7fed44a04f777bb1e18ce,64c800c48c6a43ce13ca8217,right,1,0.75,0.3714,7,0.021584801,0.1168,,,,,,94,0,94,0,1,,,,,
,,810631,001,2023-07-31_12h45.28.405,arm3_eps,2022.2.5,Win32,119.8465964,5ee95917bdb5522f9ee95e4f,64c7fed44a04f777bb1e18ce,64c800c48c6a43ce13ca8217,up,-1,0.75,0.3714,8,0,0.2003,,,,,,95,0,95,0,1,,,,,
,,810631,001,2023-07-31_12h45.28.405,arm3_eps,2022.2.5,Win32,119.8465964,5ee95917bdb5522f9ee95e4f,64c7fed44a04f777bb1e18ce,64c800c48c6a43ce13ca8217,right,-1,0.75,0.3714,8,0.007947359,0.1503,,,,,,96,0,96,0,1,,,,,
,,810631,001,2023-07-31_12h45.28.405,arm3_eps,2022.2.5,Win32,119.8465964,5ee95917bdb5522f9ee95e4f,64c7fed44a04f777bb1e18ce,64c800c48c6a43ce13ca8217,right,-1,0.75,0.3714,8,0.00969137,0.1504,,,,,,97,0,97,0,1,,,,,
,,810631,001,2023-07-31_12h45.28.405,arm3_eps,2022.2.5,Win32,119.8465964,5ee95917bdb5522f9ee95e4f,64c7fed44a04f777bb1e18ce,64c800c48c6a43ce13ca8217,right,-1,0.75,0.3714,8,-0.000596358,0.1503,,,,,,98,0,98,0,1,,,,,
,,810631,001,2023-07-31_12h45.28.405,arm3_eps,2022.2.5,Win32,119.8465964,5ee95917bdb5522f9ee95e4f,64c7fed44a04f777bb1e18ce,64c800c48c6a43ce13ca8217,right,-1,0.75,0.3714,8,-0.03567349,0.1471,,,,,,99,0,99,0,1,,,,,
,,810631,001,2023-07-31_12h45.28.405,arm3_eps,2022.2.5,Win32,119.8465964,5ee95917bdb5522f9ee95e4f,64c7fed44a04f777bb1e18ce,64c800c48c6a43ce13ca8217,right,-1,0.75,0.3714,8,-0.048594066,0.1365,,,,,,100,0,100,0,1,,,,,
,,810631,001,2023-07-31_12h45.28.405,arm3_eps,2022.2.5,Win32,119.8465964,5ee95917bdb5522f9ee95e4f,64c7fed44a04f777bb1e18ce,64c800c48c6a43ce13ca8217,down,1,0.75,0.3714,8,0,0.1335,,,,,,101,0,101,0,1,,,,,
,,810631,001,2023-07-31_12h45.28.405,arm3_eps,2022.2.5,Win32,119.8465964,5ee95917bdb5522f9ee95e4f,64c7fed44a04f777bb1e18ce,64c800c48c6a43ce13ca8217,right,1,0.75,0.3714,8,-0.007776394,0.1169,,,,,,102,0,102,0,1,,,,,
,,810631,001,2023-07-31_12h45.28.405,arm3_eps,2022.2.5,Win32,119.8465964,5ee95917bdb5522f9ee95e4f,64c7fed44a04f777bb1e18ce,64c800c48c6a43ce13ca8217,right,1,0.75,0.3714,8,0.021678289,0.1476,,,,,,103,0,103,0,1,,,,,
,,810631,001,2023-07-31_12h45.28.405,arm3_eps,2022.2.5,Win32,119.8465964,5ee95917bdb5522f9ee95e4f,64c7fed44a04f777bb1e18ce,64c800c48c6a43ce13ca8217,right,1,0.75,0.3714,8,0.035375455,0.1501,,,,,,104,0,104,0,1,,,,,
,,810631,001,2023-07-31_12h45.28.405,arm3_eps,2022.2.5,Win32,119.8465964,5ee95917bdb5522f9ee95e4f,64c7fed44a04f777bb1e18ce,64c800c48c6a43ce13ca8217,right,1,0.75,0.3714,8,0.038372727,0.1699,,,,,,105,0,105,0,1,,,,,
,,810631,001,2023-07-31_12h45.28.405,arm3_eps,2022.2.5,Win32,119.8465964,5ee95917bdb5522f9ee95e4f,64c7fed44a04f777bb1e18ce,64c800c48c6a43ce13ca8217,right,1,0.75,0.3714,8,0.03999847,0.1169,,,,,,106,0,106,0,1,,,,,
,,810631,001,2023-07-31_12h45.28.405,arm3_eps,2022.2.5,Win32,119.8465964,5ee95917bdb5522f9ee95e4f,64c7fed44a04f777bb1e18ce,64c800c48c6a43ce13ca8217,up,1,0.75,0.3714,9,0,0.1339,,,,,,107,0,107,0,1,,,,,
,,810631,001,2023-07-31_12h45.28.405,arm3_eps,2022.2.5,Win32,119.8465964,5ee95917bdb5522f9ee95e4f,64c7fed44a04f777bb1e18ce,64c800c48c6a43ce13ca8217,right,1,0.75,0.3714,9,-0.014905618,0.1643,,,,,,108,0,108,0,1,,,,,
,,810631,001,2023-07-31_12h45.28.405,arm3_eps,2022.2.5,Win32,119.8465964,5ee95917bdb5522f9ee95e4f,64c7fed44a04f777bb1e18ce,64c800c48c6a43ce13ca8217,right,1,0.75,0.3714,9,-0.018220484,0.1336,,,,,,109,0,109,0,1,,,,,
,,810631,001,2023-07-31_12h45.28.405,arm3_eps,2022.2.5,Win32,119.8465964,5ee95917bdb5522f9ee95e4f,64c7fed44a04f777bb1e18ce,64c800c48c6a43ce13ca8217,right,1,0.75,0.3714,9,0.000299446,0.1669,,,,,,110,0,110,0,1,,,,,
,,810631,001,2023-07-31_12h45.28.405,arm3_eps,2022.2.5,Win32,119.8465964,5ee95917bdb5522f9ee95e4f,64c7fed44a04f777bb1e18ce,64c800c48c6a43ce13ca8217,right,1,0.75,0.3714,9,0.019656695,0.1501,,,,,,111,0,111,0,1,,,,,
,,810631,001,2023-07-31_12h45.28.405,arm3_eps,2022.2.5,Win32,119.8465964,5ee95917bdb5522f9ee95e4f,64c7fed44a04f777bb1e18ce,64c800c48c6a43ce13ca8217,right,1,0.75,0.3714,9,0.022959145,0.1336,,,,,,112,0,112,0,1,,,,,
,,810631,001,2023-07-31_12h45.28.405,arm3_eps,2022.2.5,Win32,119.8465964,5ee95917bdb5522f9ee95e4f,64c7fed44a04f777bb1e18ce,64c800c48c6a43ce13ca8217,up,-1,0.75,0.3714,10,0,0.3837,,,,,,113,0,113,0,1,,,,,
,,810631,001,2023-07-31_12h45.28.405,arm3_eps,2022.2.5,Win32,119.8465964,5ee95917bdb5522f9ee95e4f,64c7fed44a04f777bb1e18ce,64c800c48c6a43ce13ca8217,right,-1,0.75,0.3714,10,-0.00330628,0.1336,,,,,,114,0,114,0,1,,,,,
,,810631,001,2023-07-31_12h45.28.405,arm3_eps,2022.2.5,Win32,119.8465964,5ee95917bdb5522f9ee95e4f,64c7fed44a04f777bb1e18ce,64c800c48c6a43ce13ca8217,right,-1,0.75,0.3714,10,0.020912374,0.1333,,,,,,115,0,115,0,1,,,,,
,,810631,001,2023-07-31_12h45.28.405,arm3_eps,2022.2.5,Win32,119.8465964,5ee95917bdb5522f9ee95e4f,64c7fed44a04f777bb1e18ce,64c800c48c6a43ce13ca8217,right,-1,0.75,0.3714,10,0.01497192,0.1669,,,,,,116,0,116,0,1,,,,,
,,810631,001,2023-07-31_12h45.28.405,arm3_eps,2022.2.5,Win32,119.8465964,5ee95917bdb5522f9ee95e4f,64c7fed44a04f777bb1e18ce,64c800c48c6a43ce13ca8217,right,-1,0.75,0.3714,10,-0.008250697,0.1336,,,,,,117,0,117,0,1,,,,,
,,810631,001,2023-07-31_12h45.28.405,arm3_eps,2022.2.5,Win32,119.8465964,5ee95917bdb5522f9ee95e4f,64c7fed44a04f777bb1e18ce,64c800c48c6a43ce13ca8217,right,-1,0.75,0.3714,10,0.009494319,0.1475,,,,,,118,0,118,0,1,,,,,
,,810631,001,2023-07-31_12h45.28.405,arm3_eps,2022.2.5,Win32,119.8465964,5ee95917bdb5522f9ee95e4f,64c7fed44a04f777bb1e18ce,64c800c48c6a43ce13ca8217,up,-1,0.75,0.3714,10,0,0.1503,,,,,,119,0,119,0,1,,,,,
,,810631,001,2023-07-31_12h45.28.405,arm3_eps,2022.2.5,Win32,119.8465964,5ee95917bdb5522f9ee95e4f,64c7fed44a04f777bb1e18ce,64c800c48c6a43ce13ca8217,right,-1,0.75,0.3714,10,-0.01271263,0.1698,,,,,,120,0,120,0,1,,,,,
,,810631,001,2023-07-31_12h45.28.405,arm3_eps,2022.2.5,Win32,119.8465964,5ee95917bdb5522f9ee95e4f,64c7fed44a04f777bb1e18ce,64c800c48c6a43ce13ca8217,right,-1,0.75,0.3714,10,-0.033538196,0.1503,,,,,,121,0,121,0,1,,,,,
,,810631,001,2023-07-31_12h45.28.405,arm3_eps,2022.2.5,Win32,119.8465964,5ee95917bdb5522f9ee95e4f,64c7fed44a04f777bb1e18ce,64c800c48c6a43ce13ca8217,right,-1,0.75,0.3714,10,-0.026718078,0.1651,,,,,,122,0,122,0,1,,,,,
,,810631,001,2023-07-31_12h45.28.405,arm3_eps,2022.2.5,Win32,119.8465964,5ee95917bdb5522f9ee95e4f,64c7fed44a04f777bb1e18ce,64c800c48c6a43ce13ca8217,right,-1,0.75,0.3714,10,-0.032308808,0.1338,,,,,,123,0,123,0,1,,,,,
,,810631,001,2023-07-31_12h45.28.405,arm3_eps,2022.2.5,Win32,119.8465964,5ee95917bdb5522f9ee95e4f,64c7fed44a04f777bb1e18ce,64c800c48c6a43ce13ca8217,up,1,0.75,0.3714,9,0,0.5685,,,,,,124,0,124,0,1,,,,,
,,810631,001,2023-07-31_12h45.28.405,arm3_eps,2022.2.5,Win32,119.8465964,5ee95917bdb5522f9ee95e4f,64c7fed44a04f777bb1e18ce,64c800c48c6a43ce13ca8217,right,1,0.75,0.3714,9,0.014052119,0.1335,,,,,,125,0,125,0,1,,,,,
,,810631,001,2023-07-31_12h45.28.405,arm3_eps,2022.2.5,Win32,119.8465964,5ee95917bdb5522f9ee95e4f,64c7fed44a04f777bb1e18ce,64c800c48c6a43ce13ca8217,right,1,0.75,0.3714,9,0.017125003,0.1502,,,,,,126,0,126,0,1,,,,,
,,810631,001,2023-07-31_12h45.28.405,arm3_eps,2022.2.5,Win32,119.8465964,5ee95917bdb5522f9ee95e4f,64c7fed44a04f777bb1e18ce,64c800c48c6a43ce13ca8217,right,1,0.75,0.3714,9,0.048748644,0.1836,,,,,,127,0,127,0,1,,,,,
,,810631,001,2023-07-31_12h45.28.405,arm3_eps,2022.2.5,Win32,119.8465964,5ee95917bdb5522f9ee95e4f,64c7fed44a04f777bb1e18ce,64c800c48c6a43ce13ca8217,right,1,0.75,0.3714,9,0.040900614,0.1336,,,,,,128,0,128,0,1,,,,,
,,810631,001,2023-07-31_12h45.28.405,arm3_eps,2022.2.5,Win32,119.8465964,5ee95917bdb5522f9ee95e4f,64c7fed44a04f777bb1e18ce,64c800c48c6a43ce13ca8217,right,1,0.75,0.3714,9,0.046904076,0.1325,,,,,,129,0,129,0,1,,,,,
,,810631,001,2023-07-31_12h45.28.405,arm3_eps,2022.2.5,Win32,119.8465964,5ee95917bdb5522f9ee95e4f,64c7fed44a04f777bb1e18ce,64c800c48c6a43ce13ca8217,up,1,0.75,0.3714,10,0,0.1669,,,,,,130,0,130,0,1,,,,,
,,810631,001,2023-07-31_12h45.28.405,arm3_eps,2022.2.5,Win32,119.8465964,5ee95917bdb5522f9ee95e4f,64c7fed44a04f777bb1e18ce,64c800c48c6a43ce13ca8217,right,1,0.75,0.3714,10,0.012839106,0.1688,,,,,,131,0,131,0,1,,,,,
,,810631,001,2023-07-31_12h45.28.405,arm3_eps,2022.2.5,Win32,119.8465964,5ee95917bdb5522f9ee95e4f,64c7fed44a04f777bb1e18ce,64c800c48c6a43ce13ca8217,right,1,0.75,0.3714,10,-0.003452818,0.1503,,,,,,132,0,132,0,1,,,,,
,,810631,001,2023-07-31_12h45.28.405,arm3_eps,2022.2.5,Win32,119.8465964,5ee95917bdb5522f9ee95e4f,64c7fed44a04f777bb1e18ce,64c800c48c6a43ce13ca8217,right,1,0.75,0.3714,10,0.005843475,0.1339,,,,,,133,0,133,0,1,,,,,
,,810631,001,2023-07-31_12h45.28.405,arm3_eps,2022.2.5,Win32,119.8465964,5ee95917bdb5522f9ee95e4f,64c7fed44a04f777bb1e18ce,64c800c48c6a43ce13ca8217,right,1,0.75,0.3714,10,-0.018596703,0.1503,,,,,,134,0,134,0,1,,,,,
,,810631,001,2023-07-31_12h45.28.405,arm3_eps,2022.2.5,Win32,119.8465964,5ee95917bdb5522f9ee95e4f,64c7fed44a04f777bb1e18ce,64c800c48c6a43ce13ca8217,right,1,0.75,0.3714,10,-0.003076361,0.1336,,,,,,135,0,135,0,1,,,,,
,,810631,001,2023-07-31_12h45.28.405,arm3_eps,2022.2.5,Win32,119.8465964,5ee95917bdb5522f9ee95e4f,64c7fed44a04f777bb1e18ce,64c800c48c6a43ce13ca8217,up,1,0.75,0.3714,10,0,0.1721,,,,,,136,0,136,0,1,,,,,
,,810631,001,2023-07-31_12h45.28.405,arm3_eps,2022.2.5,Win32,119.8465964,5ee95917bdb5522f9ee95e4f,64c7fed44a04f777bb1e18ce,64c800c48c6a43ce13ca8217,right,1,0.75,0.3714,10,0.003956047,0.1835,,,,,,137,0,137,0,1,,,,,
,,810631,001,2023-07-31_12h45.28.405,arm3_eps,2022.2.5,Win32,119.8465964,5ee95917bdb5522f9ee95e4f,64c7fed44a04f777bb1e18ce,64c800c48c6a43ce13ca8217,right,1,0.75,0.3714,10,0.021104407,0.1671,,,,,,138,0,138,0,1,,,,,
,,810631,001,2023-07-31_12h45.28.405,arm3_eps,2022.2.5,Win32,119.8465964,5ee95917bdb5522f9ee95e4f,64c7fed44a04f777bb1e18ce,64c800c48c6a43ce13ca8217,right,1,0.75,0.3714,10,0.03126693,0.1669,,,,,,139,0,139,0,1,,,,,
,,810631,001,2023-07-31_12h45.28.405,arm3_eps,2022.2.5,Win32,119.8465964,5ee95917bdb5522f9ee95e4f,64c7fed44a04f777bb1e18ce,64c800c48c6a43ce13ca8217,right,1,0.75,0.3714,10,0.013993677,0.1169,,,,,,140,0,140,0,1,,,,,
,,810631,001,2023-07-31_12h45.28.405,arm3_eps,2022.2.5,Win32,119.8465964,5ee95917bdb5522f9ee95e4f,64c7fed44a04f777bb1e18ce,64c800c48c6a43ce13ca8217,right,1,0.75,0.3714,10,0.029844145,0.1497,,,,,,141,0,141,0,1,,,,,
,,810631,001,2023-07-31_12h45.28.405,arm3_eps,2022.2.5,Win32,119.8465964,5ee95917bdb5522f9ee95e4f,64c7fed44a04f777bb1e18ce,64c800c48c6a43ce13ca8217,down,-1,0.75,0.3714,9,0,0.2838,,,,,,142,0,142,0,1,,,,,
,,810631,001,2023-07-31_12h45.28.405,arm3_eps,2022.2.5,Win32,119.8465964,5ee95917bdb5522f9ee95e4f,64c7fed44a04f777bb1e18ce,64c800c48c6a43ce13ca8217,right,-1,0.75,0.3714,9,-0.000121627,0.1501,,,,,,143,0,143,0,1,,,,,
,,810631,001,2023-07-31_12h45.28.405,arm3_eps,2022.2.5,Win32,119.8465964,5ee95917bdb5522f9ee95e4f,64c7fed44a04f777bb1e18ce,64c800c48c6a43ce13ca8217,right,-1,0.75,0.3714,9,-0.002894585,0.151,,,,,,144,0,144,0,1,,,,,
,,810631,001,2023-07-31_12h45.28.405,arm3_eps,2022.2.5,Win32,119.8465964,5ee95917bdb5522f9ee95e4f,64c7fed44a04f777bb1e18ce,64c800c48c6a43ce13ca8217,right,-1,0.75,0.3714,9,-0.010694462,0.1523,,,,,,145,0,145,0,1,,,,,
,,810631,001,2023-07-31_12h45.28.405,arm3_eps,2022.2.5,Win32,119.8465964,5ee95917bdb5522f9ee95e4f,64c7fed44a04f777bb1e18ce,64c800c48c6a43ce13ca8217,right,-1,0.75,0.3714,9,-0.040411264,0.1333,,,,,,146,0,146,0,1,,,,,
,,810631,001,2023-07-31_12h45.28.405,arm3_eps,2022.2.5,Win32,119.8465964,5ee95917bdb5522f9ee95e4f,64c7fed44a04f777bb1e18ce,64c800c48c6a43ce13ca8217,right,-1,0.75,0.3714,9,-0.073581647,0.1169,,,,,,147,0,147,0,1,,,,,
,,810631,001,2023-07-31_12h45.28.405,arm3_eps,2022.2.5,Win32,119.8465964,5ee95917bdb5522f9ee95e4f,64c7fed44a04f777bb1e18ce,64c800c48c6a43ce13ca8217,down,1,0.75,0.3714,10,0,0.2339,,,,,,148,0,148,0,1,,,,,
,,810631,001,2023-07-31_12h45.28.405,arm3_eps,2022.2.5,Win32,119.8465964,5ee95917bdb5522f9ee95e4f,64c7fed44a04f777bb1e18ce,64c800c48c6a43ce13ca8217,right,1,0.75,0.3714,10,0.004841954,0.1503,,,,,,149,0,149,0,1,,,,,
,,810631,001,2023-07-31_12h45.28.405,arm3_eps,2022.2.5,Win32,119.8465964,5ee95917bdb5522f9ee95e4f,64c7fed44a04f777bb1e18ce,64c800c48c6a43ce13ca8217,right,1,0.75,0.3714,10,0.03234144,0.133,,,,,,150,0,150,0,1,,,,,
,,810631,001,2023-07-31_12h45.28.405,arm3_eps,2022.2.5,Win32,119.8465964,5ee95917bdb5522f9ee95e4f,64c7fed44a04f777bb1e18ce,64c800c48c6a43ce13ca8217,right,1,0.75,0.3714,10,0.056205464,0.1686,,,,,,151,0,151,0,1,,,,,
,,810631,001,2023-07-31_12h45.28.405,arm3_eps,2022.2.5,Win32,119.8465964,5ee95917bdb5522f9ee95e4f,64c7fed44a04f777bb1e18ce,64c800c48c6a43ce13ca8217,right,1,0.75,0.3714,10,0.037427108,0.1501,,,,,,152,0,152,0,1,,,,,
,,810631,001,2023-07-31_12h45.28.405,arm3_eps,2022.2.5,Win32,119.8465964,5ee95917bdb5522f9ee95e4f,64c7fed44a04f777bb1e18ce,64c800c48c6a43ce13ca8217,up,-1,0.75,0.3714,11,0,0.3036,,,,,,153,0,153,0,1,,,,,
,,810631,001,2023-07-31_12h45.28.405,arm3_eps,2022.2.5,Win32,119.8465964,5ee95917bdb5522f9ee95e4f,64c7fed44a04f777bb1e18ce,64c800c48c6a43ce13ca8217,right,-1,0.75,0.3714,11,0.008542758,0.1666,,,,,,154,0,154,0,1,,,,,
,,810631,001,2023-07-31_12h45.28.405,arm3_eps,2022.2.5,Win32,119.8465964,5ee95917bdb5522f9ee95e4f,64c7fed44a04f777bb1e18ce,64c800c48c6a43ce13ca8217,right,-1,0.75,0.3714,11,-0.031456867,0.1337,,,,,,155,0,155,0,1,,,,,
,,810631,001,2023-07-31_12h45.28.405,arm3_eps,2022.2.5,Win32,119.8465964,5ee95917bdb5522f9ee95e4f,64c7fed44a04f777bb1e18ce,64c800c48c6a43ce13ca8217,right,-1,0.75,0.3714,11,-0.012480786,0.1835,,,,,,156,0,156,0,1,,,,,
,,810631,001,2023-07-31_12h45.28.405,arm3_eps,2022.2.5,Win32,119.8465964,5ee95917bdb5522f9ee95e4f,64c7fed44a04f777bb1e18ce,64c800c48c6a43ce13ca8217,right,-1,0.75,0.3714,11,-0.000942829,0.117,,,,,,157,0,157,0,1,,,,,
,,810631,001,2023-07-31_12h45.28.405,arm3_eps,2022.2.5,Win32,119.8465964,5ee95917bdb5522f9ee95e4f,64c7fed44a04f777bb1e18ce,64c800c48c6a43ce13ca8217,right,-1,0.75,0.3714,11,-0.002397576,0.1335,,,,,,158,0,158,0,1,,,,,
,,810631,001,2023-07-31_12h45.28.405,arm3_eps,2022.2.5,Win32,119.8465964,5ee95917bdb5522f9ee95e4f,64c7fed44a04f777bb1e18ce,64c800c48c6a43ce13ca8217,down,-1,0.75,0.3714,11,0,0.1669,,,,,,159,0,159,0,1,,,,,
,,810631,001,2023-07-31_12h45.28.405,arm3_eps,2022.2.5,Win32,119.8465964,5ee95917bdb5522f9ee95e4f,64c7fed44a04f777bb1e18ce,64c800c48c6a43ce13ca8217,right,-1,0.75,0.3714,11,0.002399953,0.1998,,,,,,160,0,160,0,1,,,,,
,,810631,001,2023-07-31_12h45.28.405,arm3_eps,2022.2.5,Win32,119.8465964,5ee95917bdb5522f9ee95e4f,64c7fed44a04f777bb1e18ce,64c800c48c6a43ce13ca8217,right,-1,0.75,0.3714,11,-0.022855592,0.1338,,,,,,161,0,161,0,1,,,,,
,,810631,001,2023-07-31_12h45.28.405,arm3_eps,2022.2.5,Win32,119.8465964,5ee95917bdb5522f9ee95e4f,64c7fed44a04f777bb1e18ce,64c800c48c6a43ce13ca8217,right,-1,0.75,0.3714,11,-0.075774552,0.1477,,,,,,162,0,162,0,1,,,,,
,,810631,001,2023-07-31_12h45.28.405,arm3_eps,2022.2.5,Win32,119.8465964,5ee95917bdb5522f9ee95e4f,64c7fed44a04f777bb1e18ce,64c800c48c6a43ce13ca8217,right,-1,0.75,0.3714,11,-0.09254124,0.1503,,,,,,163,0,163,0,1,,,,,
,,810631,001,2023-07-31_12h45.28.405,arm3_eps,2022.2.5,Win32,119.8465964,5ee95917bdb5522f9ee95e4f,64c7fed44a04f777bb1e18ce,64c800c48c6a43ce13ca8217,right,-1,0.75,0.3714,11,-0.094703902,0.1171,,,,,,164,0,164,0,1,,,,,
,,810631,001,2023-07-31_12h45.28.405,arm3_eps,2022.2.5,Win32,119.8465964,5ee95917bdb5522f9ee95e4f,64c7fed44a04f777bb1e18ce,64c800c48c6a43ce13ca8217,down,1,0.75,0.3714,12,0,0.2503,,,,,,165,0,165,0,1,,,,,
,,810631,001,2023-07-31_12h45.28.405,arm3_eps,2022.2.5,Win32,119.8465964,5ee95917bdb5522f9ee95e4f,64c7fed44a04f777bb1e18ce,64c800c48c6a43ce13ca8217,right,1,0.75,0.3714,12,0.009031017,0.1504,,,,,,166,0,166,0,1,,,,,
,,810631,001,2023-07-31_12h45.28.405,arm3_eps,2022.2.5,Win32,119.8465964,5ee95917bdb5522f9ee95e4f,64c7fed44a04f777bb1e18ce,64c800c48c6a43ce13ca8217,right,1,0.75,0.3714,12,0.008728504,0.1357,,,,,,167,0,167,0,1,,,,,
,,810631,001,2023-07-31_12h45.28.405,arm3_eps,2022.2.5,Win32,119.8465964,5ee95917bdb5522f9ee95e4f,64c7fed44a04f777bb1e18ce,64c800c48c6a43ce13ca8217,right,1,0.75,0.3714,12,0.007957118,0.1502,,,,,,168,0,168,0,1,,,,,
,,810631,001,2023-07-31_12h45.28.405,arm3_eps,2022.2.5,Win32,119.8465964,5ee95917bdb5522f9ee95e4f,64c7fed44a04f777bb1e18ce,64c800c48c6a43ce13ca8217,right,1,0.75,0.3714,12,-0.000293658,0.152,,,,,,169,0,169,0,1,,,,,
,,810631,001,2023-07-31_12h45.28.405,arm3_eps,2022.2.5,Win32,119.8465964,5ee95917bdb5522f9ee95e4f,64c7fed44a04f777bb1e18ce,64c800c48c6a43ce13ca8217,right,1,0.75,0.3714,12,0.001452206,0.1335,,,,,,170,0,170,0,1,,,,,
,,810631,001,2023-07-31_12h45.28.405,arm3_eps,2022.2.5,Win32,119.8465964,5ee95917bdb5522f9ee95e4f,64c7fed44a04f777bb1e18ce,64c800c48c6a43ce13ca8217,right,1,0.75,0.3714,12,0.002914017,0.1163,,,,,,171,0,171,0,1,,,,,
,,810631,001,2023-07-31_12h45.28.405,arm3_eps,2022.2.5,Win32,119.8465964,5ee95917bdb5522f9ee95e4f,64c7fed44a04f777bb1e18ce,64c800c48c6a43ce13ca8217,up,-1,0.75,0.3714,13,0,0.2815,,,,,,172,0,172,0,1,,,,,
,,810631,001,2023-07-31_12h45.28.405,arm3_eps,2022.2.5,Win32,119.8465964,5ee95917bdb5522f9ee95e4f,64c7fed44a04f777bb1e18ce,64c800c48c6a43ce13ca8217,right,-1,0.75,0.3714,13,0.003546606,0.2319,,,,,,173,0,173,0,1,,,,,
,,810631,001,2023-07-31_12h45.28.405,arm3_eps,2022.2.5,Win32,119.8465964,5ee95917bdb5522f9ee95e4f,64c7fed44a04f777bb1e18ce,64c800c48c6a43ce13ca8217,right,-1,0.75,0.3714,13,0.004774083,0.1668,,,,,,174,0,174,0,1,,,,,
,,810631,001,2023-07-31_12h45.28.405,arm3_eps,2022.2.5,Win32,119.8465964,5ee95917bdb5522f9ee95e4f,64c7fed44a04f777bb1e18ce,64c800c48c6a43ce13ca8217,right,-1,0.75,0.3714,13,0.019171834,0.1337,,,,,,175,0,175,0,1,,,,,
,,810631,001,2023-07-31_12h45.28.405,arm3_eps,2022.2.5,Win32,119.8465964,5ee95917bdb5522f9ee95e4f,64c7fed44a04f777bb1e18ce,64c800c48c6a43ce13ca8217,right,-1,0.75,0.3714,13,-0.001724646,0.1485,,,,,,176,0,176,0,1,,,,,
,,810631,001,2023-07-31_12h45.28.405,arm3_eps,2022.2.5,Win32,119.8465964,5ee95917bdb5522f9ee95e4f,64c7fed44a04f777bb1e18ce,64c800c48c6a43ce13ca8217,right,-1,0.75,0.3714,13,0.013141295,0.1167,,,,,,177,0,177,0,1,,,,,
,,810631,001,2023-07-31_12h45.28.405,arm3_eps,2022.2.5,Win32,119.8465964,5ee95917bdb5522f9ee95e4f,64c7fed44a04f777bb1e18ce,64c800c48c6a43ce13ca8217,up,-1,0.75,0.3714,12,0,0.2157,,,,,,178,0,178,0,1,,,,,
,,810631,001,2023-07-31_12h45.28.405,arm3_eps,2022.2.5,Win32,119.8465964,5ee95917bdb5522f9ee95e4f,64c7fed44a04f777bb1e18ce,64c800c48c6a43ce13ca8217,right,-1,0.75,0.3714,12,0.037683991,0.1682,,,,,,179,0,179,0,1,,,,,
,,810631,001,2023-07-31_12h45.28.405,arm3_eps,2022.2.5,Win32,119.8465964,5ee95917bdb5522f9ee95e4f,64c7fed44a04f777bb1e18ce,64c800c48c6a43ce13ca8217,right,-1,0.75,0.3714,12,0.033968131,0.1681,,,,,,180,0,180,0,1,,,,,
,,810631,001,2023-07-31_12h45.28.405,arm3_eps,2022.2.5,Win32,119.8465964,5ee95917bdb5522f9ee95e4f,64c7fed44a04f777bb1e18ce,64c800c48c6a43ce13ca8217,right,-1,0.75,0.3714,12,0.0283314,0.1501,,,,,,181,0,181,0,1,,,,,
,,810631,001,2023-07-31_12h45.28.405,arm3_eps,2022.2.5,Win32,119.8465964,5ee95917bdb5522f9ee95e4f,64c7fed44a04f777bb1e18ce,64c800c48c6a43ce13ca8217,right,-1,0.75,0.3714,12,0.002901872,0.1502,,,,,,182,0,182,0,1,,,,,
,,810631,001,2023-07-31_12h45.28.405,arm3_eps,2022.2.5,Win32,119.8465964,5ee95917bdb5522f9ee95e4f,64c7fed44a04f777bb1e18ce,64c800c48c6a43ce13ca8217,right,-1,0.75,0.3714,12,-0.024306613,0.1337,,,,,,183,0,183,0,1,,,,,
,,810631,001,2023-07-31_12h45.28.405,arm3_eps,2022.2.5,Win32,119.8465964,5ee95917bdb5522f9ee95e4f,64c7fed44a04f777bb1e18ce,64c800c48c6a43ce13ca8217,right,-1,0.75,0.3714,12,-0.048189726,0.1158,,,,,,184,0,184,0,1,,,,,
,,810631,001,2023-07-31_12h45.28.405,arm3_eps,2022.2.5,Win32,119.8465964,5ee95917bdb5522f9ee95e4f,64c7fed44a04f777bb1e18ce,64c800c48c6a43ce13ca8217,up,-1,0.75,0.3714,11,0,0.1839,,,,,,185,0,185,0,1,,,,,
,,810631,001,2023-07-31_12h45.28.405,arm3_eps,2022.2.5,Win32,119.8465964,5ee95917bdb5522f9ee95e4f,64c7fed44a04f777bb1e18ce,64c800c48c6a43ce13ca8217,right,-1,0.75,0.3714,11,-0.017058335,0.3002,,,,,,186,0,186,0,1,,,,,
,,810631,001,2023-07-31_12h45.28.405,arm3_eps,2022.2.5,Win32,119.8465964,5ee95917bdb5522f9ee95e4f,64c7fed44a04f777bb1e18ce,64c800c48c6a43ce13ca8217,right,-1,0.75,0.3714,11,-0.044402831,0.1499,,,,,,187,0,187,0,1,,,,,
,,810631,001,2023-07-31_12h45.28.405,arm3_eps,2022.2.5,Win32,119.8465964,5ee95917bdb5522f9ee95e4f,64c7fed44a04f777bb1e18ce,64c800c48c6a43ce13ca8217,right,-1,0.75,0.3714,11,-0.048829408,0.1505,,,,,,188,0,188,0,1,,,,,
,,810631,001,2023-07-31_12h45.28.405,arm3_eps,2022.2.5,Win32,119.8465964,5ee95917bdb5522f9ee95e4f,64c7fed44a04f777bb1e18ce,64c800c48c6a43ce13ca8217,right,-1,0.75,0.3714,11,-0.066554195,0.1326,,,,,,189,0,189,0,1,,,,,
,,810631,001,2023-07-31_12h45.28.405,arm3_eps,2022.2.5,Win32,119.8465964,5ee95917bdb5522f9ee95e4f,64c7fed44a04f777bb1e18ce,64c800c48c6a43ce13ca8217,right,-1,0.75,0.3714,11,-0.044596886,0.1335,,,,,,190,0,190,0,1,,,,,
,,810631,001,2023-07-31_12h45.28.405,arm3_eps,2022.2.5,Win32,119.8465964,5ee95917bdb5522f9ee95e4f,64c7fed44a04f777bb1e18ce,64c800c48c6a43ce13ca8217,down,-1,0.75,0.3714,12,0,0.1652,,,,,,191,0,191,0,1,,,,,
,,810631,001,2023-07-31_12h45.28.405,arm3_eps,2022.2.5,Win32,119.8465964,5ee95917bdb5522f9ee95e4f,64c7fed44a04f777bb1e18ce,64c800c48c6a43ce13ca8217,right,-1,0.75,0.3714,12,0.019178146,0.1839,,,,,,192,0,192,0,1,,,,,
,,810631,001,2023-07-31_12h45.28.405,arm3_eps,2022.2.5,Win32,119.8465964,5ee95917bdb5522f9ee95e4f,64c7fed44a04f777bb1e18ce,64c800c48c6a43ce13ca8217,right,-1,0.75,0.3714,12,0.000190898,0.1335,,,,,,193,0,193,0,1,,,,,
,,810631,001,2023-07-31_12h45.28.405,arm3_eps,2022.2.5,Win32,119.8465964,5ee95917bdb5522f9ee95e4f,64c7fed44a04f777bb1e18ce,64c800c48c6a43ce13ca8217,right,-1,0.75,0.3714,12,-0.004927707,0.1335,,,,,,194,0,194,0,1,,,,,
,,810631,001,2023-07-31_12h45.28.405,arm3_eps,2022.2.5,Win32,119.8465964,5ee95917bdb5522f9ee95e4f,64c7fed44a04f777bb1e18ce,64c800c48c6a43ce13ca8217,right,-1,0.75,0.3714,12,0.01716053,0.1498,,,,,,195,0,195,0,1,,,,,
,,810631,001,2023-07-31_12h45.28.405,arm3_eps,2022.2.5,Win32,119.8465964,5ee95917bdb5522f9ee95e4f,64c7fed44a04f777bb1e18ce,64c800c48c6a43ce13ca8217,right,-1,0.75,0.3714,12,0.018244766,0.1503,,,,,,196,0,196,0,1,,,,,
,,810631,001,2023-07-31_12h45.28.405,arm3_eps,2022.2.5,Win32,119.8465964,5ee95917bdb5522f9ee95e4f,64c7fed44a04f777bb1e18ce,64c800c48c6a43ce13ca8217,up,1,0.75,0.3714,11,0,0.2836,,,,,,197,0,197,0,1,,,,,
,,810631,001,2023-07-31_12h45.28.405,arm3_eps,2022.2.5,Win32,119.8465964,5ee95917bdb5522f9ee95e4f,64c7fed44a04f777bb1e18ce,64c800c48c6a43ce13ca8217,right,1,0.75,0.3714,11,-0.027332367,0.1836,,,,,,198,0,198,0,1,,,,,
,,810631,001,2023-07-31_12h45.28.405,arm3_eps,2022.2.5,Win32,119.8465964,5ee95917bdb5522f9ee95e4f,64c7fed44a04f777bb1e18ce,64c800c48c6a43ce13ca8217,right,1,0.75,0.3714,11,0.001359939,0.1501,,,,,,199,0,199,0,1,,,,,
,,810631,001,2023-07-31_12h45.28.405,arm3_eps,2022.2.5,Win32,119.8465964,5ee95917bdb5522f9ee95e4f,64c7fed44a04f777bb1e18ce,64c800c48c6a43ce13ca8217,right,1,0.75,0.3714,11,0.038784345,0.1326,,,,,,200,0,200,0,1,,,,,
,,810631,001,2023-07-31_12h45.28.405,arm3_eps,2022.2.5,Win32,119.8465964,5ee95917bdb5522f9ee95e4f,64c7fed44a04f777bb1e18ce,64c800c48c6a43ce13ca8217,right,1,0.75,0.3714,11,0.045364631,0.1503,,,,,,201,0,201,0,1,,,,,
,,810631,001,2023-07-31_12h45.28.405,arm3_eps,2022.2.5,Win32,119.8465964,5ee95917bdb5522f9ee95e4f,64c7fed44a04f777bb1e18ce,64c800c48c6a43ce13ca8217,right,1,0.75,0.3714,11,0.050036704,0.1336,,,,,,202,0,202,0,1,,,,,
,,810631,001,2023-07-31_12h45.28.405,arm3_eps,2022.2.5,Win32,119.8465964,5ee95917bdb5522f9ee95e4f,64c7fed44a04f777bb1e18ce,64c800c48c6a43ce13ca8217,up,1,0.75,0.3714,11,0,0.1836,,,,,,203,0,203,0,1,,,,,
,,810631,001,2023-07-31_12h45.28.405,arm3_eps,2022.2.5,Win32,119.8465964,5ee95917bdb5522f9ee95e4f,64c7fed44a04f777bb1e18ce,64c800c48c6a43ce13ca8217,right,1,0.75,0.3714,11,0.008494897,0.2335,,,,,,204,0,204,0,1,,,,,
,,810631,001,2023-07-31_12h45.28.405,arm3_eps,2022.2.5,Win32,119.8465964,5ee95917bdb5522f9ee95e4f,64c7fed44a04f777bb1e18ce,64c800c48c6a43ce13ca8217,right,1,0.75,0.3714,11,0.035015552,0.1338,,,,,,205,0,205,0,1,,,,,
,,810631,001,2023-07-31_12h45.28.405,arm3_eps,2022.2.5,Win32,119.8465964,5ee95917bdb5522f9ee95e4f,64c7fed44a04f777bb1e18ce,64c800c48c6a43ce13ca8217,right,1,0.75,0.3714,11,0.028129063,0.15,,,,,,206,0,206,0,1,,,,,
,,810631,001,2023-07-31_12h45.28.405,arm3_eps,2022.2.5,Win32,119.8465964,5ee95917bdb5522f9ee95e4f,64c7fed44a04f777bb1e18ce,64c800c48c6a43ce13ca8217,right,1,0.75,0.3714,11,0.029732398,0.1512,,,,,,207,0,207,0,1,,,,,
,,810631,001,2023-07-31_12h45.28.405,arm3_eps,2022.2.5,Win32,119.8465964,5ee95917bdb5522f9ee95e4f,64c7fed44a04f777bb1e18ce,64c800c48c6a43ce13ca8217,right,1,0.75,0.3714,11,0.009274828,0.1337,,,,,,208,0,208,0,1,,,,,
,,810631,001,2023-07-31_12h45.28.405,arm3_eps,2022.2.5,Win32,119.8465964,5ee95917bdb5522f9ee95e4f,64c7fed44a04f777bb1e18ce,64c800c48c6a43ce13ca8217,up,1,0.75,0.3714,11,0,0.1836,,,,,,209,0,209,0,1,,,,,
,,810631,001,2023-07-31_12h45.28.405,arm3_eps,2022.2.5,Win32,119.8465964,5ee95917bdb5522f9ee95e4f,64c7fed44a04f777bb1e18ce,64c800c48c6a43ce13ca8217,right,1,0.75,0.3714,11,0.008779239,0.2004,,,,,,210,0,210,0,1,,,,,
,,810631,001,2023-07-31_12h45.28.405,arm3_eps,2022.2.5,Win32,119.8465964,5ee95917bdb5522f9ee95e4f,64c7fed44a04f777bb1e18ce,64c800c48c6a43ce13ca8217,right,1,0.75,0.3714,11,0.019918863,0.1659,,,,,,211,0,211,0,1,,,,,
,,810631,001,2023-07-31_12h45.28.405,arm3_eps,2022.2.5,Win32,119.8465964,5ee95917bdb5522f9ee95e4f,64c7fed44a04f777bb1e18ce,64c800c48c6a43ce13ca8217,right,1,0.75,0.3714,11,0.001001747,0.167,,,,,,212,0,212,0,1,,,,,
,,810631,001,2023-07-31_12h45.28.405,arm3_eps,2022.2.5,Win32,119.8465964,5ee95917bdb5522f9ee95e4f,64c7fed44a04f777bb1e18ce,64c800c48c6a43ce13ca8217,right,1,0.75,0.3714,11,0.02847246,0.1502,,,,,,213,0,213,0,1,,,,,
,,810631,001,2023-07-31_12h45.28.405,arm3_eps,2022.2.5,Win32,119.8465964,5ee95917bdb5522f9ee95e4f,64c7fed44a04f777bb1e18ce,64c800c48c6a43ce13ca8217,right,1,0.75,0.3714,11,0.019185585,0.1187,,,,,,214,0,214,0,1,,,,,
,,810631,001,2023-07-31_12h45.28.405,arm3_eps,2022.2.5,Win32,119.8465964,5ee95917bdb5522f9ee95e4f,64c7fed44a04f777bb1e18ce,64c800c48c6a43ce13ca8217,right,1,0.75,0.3714,11,0.005701041,0.1175,,,,,,215,0,215,0,1,,,,,
,,810631,001,2023-07-31_12h45.28.405,arm3_eps,2022.2.5,Win32,119.8465964,5ee95917bdb5522f9ee95e4f,64c7fed44a04f777bb1e18ce,64c800c48c6a43ce13ca8217,up,-1,0.75,0.3714,12,0,0.2003,,,,,,216,0,216,0,1,,,,,
,,810631,001,2023-07-31_12h45.28.405,arm3_eps,2022.2.5,Win32,119.8465964,5ee95917bdb5522f9ee95e4f,64c7fed44a04f777bb1e18ce,64c800c48c6a43ce13ca8217,right,-1,0.75,0.3714,12,0.010313796,0.1837,,,,,,217,0,217,0,1,,,,,
,,810631,001,2023-07-31_12h45.28.405,arm3_eps,2022.2.5,Win32,119.8465964,5ee95917bdb5522f9ee95e4f,64c7fed44a04f777bb1e18ce,64c800c48c6a43ce13ca8217,right,-1,0.75,0.3714,12,0.018701787,0.1526,,,,,,218,0,218,0,1,,,,,
,,810631,001,2023-07-31_12h45.28.405,arm3_eps,2022.2.5,Win32,119.8465964,5ee95917bdb5522f9ee95e4f,64c7fed44a04f777bb1e18ce,64c800c48c6a43ce13ca8217,right,-1,0.75,0.3714,12,0.044879086,0.1501,,,,,,219,0,219,0,1,,,,,
,,810631,001,2023-07-31_12h45.28.405,arm3_eps,2022.2.5,Win32,119.8465964,5ee95917bdb5522f9ee95e4f,64c7fed44a04f777bb1e18ce,64c800c48c6a43ce13ca8217,right,-1,0.75,0.3714,12,0.018087672,0.1502,,,,,,220,0,220,0,1,,,,,
,,810631,001,2023-07-31_12h45.28.405,arm3_eps,2022.2.5,Win32,119.8465964,5ee95917bdb5522f9ee95e4f,64c7fed44a04f777bb1e18ce,64c800c48c6a43ce13ca8217,right,-1,0.75,0.3714,12,-0.000123547,0.1338,,,,,,221,0,221,0,1,,,,,
,,810631,001,2023-07-31_12h45.28.405,arm3_eps,2022.2.5,Win32,119.8465964,5ee95917bdb5522f9ee95e4f,64c7fed44a04f777bb1e18ce,64c800c48c6a43ce13ca8217,up,1,0.75,0.3714,11,0,0.2665,,,,,,222,0,222,0,1,,,,,
,,810631,001,2023-07-31_12h45.28.405,arm3_eps,2022.2.5,Win32,119.8465964,5ee95917bdb5522f9ee95e4f,64c7fed44a04f777bb1e18ce,64c800c48c6a43ce13ca8217,right,1,0.75,0.3714,11,0.017232615,0.1837,,,,,,223,0,223,0,1,,,,,
,,810631,001,2023-07-31_12h45.28.405,arm3_eps,2022.2.5,Win32,119.8465964,5ee95917bdb5522f9ee95e4f,64c7fed44a04f777bb1e18ce,64c800c48c6a43ce13ca8217,right,1,0.75,0.3714,11,0.024338807,0.1501,,,,,,224,0,224,0,1,,,,,
,,810631,001,2023-07-31_12h45.28.405,arm3_eps,2022.2.5,Win32,119.8465964,5ee95917bdb5522f9ee95e4f,64c7fed44a04f777bb1e18ce,64c800c48c6a43ce13ca8217,right,1,0.75,0.3714,11,0.01696946,0.1501,,,,,,225,0,225,0,1,,,,,
,,810631,001,2023-07-31_12h45.28.405,arm3_eps,2022.2.5,Win32,119.8465964,5ee95917bdb5522f9ee95e4f,64c7fed44a04f777bb1e18ce,64c800c48c6a43ce13ca8217,right,1,0.75,0.3714,11,0.016942515,0.1669,,,,,,226,0,226,0,1,,,,,
,,810631,001,2023-07-31_12h45.28.405,arm3_eps,2022.2.5,Win32,119.8465964,5ee95917bdb5522f9ee95e4f,64c7fed44a04f777bb1e18ce,64c800c48c6a43ce13ca8217,right,1,0.75,0.3714,11,0.074182097,0.1336,,,,,,227,0,227,0,1,,,,,
,,810631,001,2023-07-31_12h45.28.405,arm3_eps,2022.2.5,Win32,119.8465964,5ee95917bdb5522f9ee95e4f,64c7fed44a04f777bb1e18ce,64c800c48c6a43ce13ca8217,right,1,0.75,0.3714,11,0.109868685,0.1336,,,,,,228,0,228,0,1,,,,,
,,810631,001,2023-07-31_12h45.28.405,arm3_eps,2022.2.5,Win32,119.8465964,5ee95917bdb5522f9ee95e4f,64c7fed44a04f777bb1e18ce,64c800c48c6a43ce13ca8217,up,1,0.75,0.3714,12,0,0.2003,,,,,,229,0,229,0,1,,,,,
,,810631,001,2023-07-31_12h45.28.405,arm3_eps,2022.2.5,Win32,119.8465964,5ee95917bdb5522f9ee95e4f,64c7fed44a04f777bb1e18ce,64c800c48c6a43ce13ca8217,right,1,0.75,0.3714,12,-0.011439178,0.1835,,,,,,230,0,230,0,1,,,,,
,,810631,001,2023-07-31_12h45.28.405,arm3_eps,2022.2.5,Win32,119.8465964,5ee95917bdb5522f9ee95e4f,64c7fed44a04f777bb1e18ce,64c800c48c6a43ce13ca8217,right,1,0.75,0.3714,12,0.000963072,0.1503,,,,,,231,0,231,0,1,,,,,
,,810631,001,2023-07-31_12h45.28.405,arm3_eps,2022.2.5,Win32,119.8465964,5ee95917bdb5522f9ee95e4f,64c7fed44a04f777bb1e18ce,64c800c48c6a43ce13ca8217,right,1,0.75,0.3714,12,-0.003498146,0.1337,,,,,,232,0,232,0,1,,,,,
,,810631,001,2023-07-31_12h45.28.405,arm3_eps,2022.2.5,Win32,119.8465964,5ee95917bdb5522f9ee95e4f,64c7fed44a04f777bb1e18ce,64c800c48c6a43ce13ca8217,right,1,0.75,0.3714,12,0.039536626,0.1669,,,,,,233,0,233,0,1,,,,,
,,810631,001,2023-07-31_12h45.28.405,arm3_eps,2022.2.5,Win32,119.8465964,5ee95917bdb5522f9ee95e4f,64c7fed44a04f777bb1e18ce,64c800c48c6a43ce13ca8217,right,1,0.75,0.3714,12,0.046143646,0.1334,,,,,,234,0,234,0,1,,,,,
,,810631,001,2023-07-31_12h45.28.405,arm3_eps,2022.2.5,Win32,119.8465964,5ee95917bdb5522f9ee95e4f,64c7fed44a04f777bb1e18ce,64c800c48c6a43ce13ca8217,up,1,0.75,0.3714,13,0,0.2504,,,,,,235,0,235,0,1,,,,,
,,810631,001,2023-07-31_12h45.28.405,arm3_eps,2022.2.5,Win32,119.8465964,5ee95917bdb5522f9ee95e4f,64c7fed44a04f777bb1e18ce,64c800c48c6a43ce13ca8217,right,1,0.75,0.3714,13,0.029778956,0.2005,,,,,,236,0,236,0,1,,,,,
,,810631,001,2023-07-31_12h45.28.405,arm3_eps,2022.2.5,Win32,119.8465964,5ee95917bdb5522f9ee95e4f,64c7fed44a04f777bb1e18ce,64c800c48c6a43ce13ca8217,right,1,0.75,0.3714,13,0.039276186,0.1339,,,,,,237,0,237,0,1,,,,,
,,810631,001,2023-07-31_12h45.28.405,arm3_eps,2022.2.5,Win32,119.8465964,5ee95917bdb5522f9ee95e4f,64c7fed44a04f777bb1e18ce,64c800c48c6a43ce13ca8217,right,1,0.75,0.3714,13,0.031331631,0.1337,,,,,,238,0,238,0,1,,,,,
,,810631,001,2023-07-31_12h45.28.405,arm3_eps,2022.2.5,Win32,119.8465964,5ee95917bdb5522f9ee95e4f,64c7fed44a04f777bb1e18ce,64c800c48c6a43ce13ca8217,right,1,0.75,0.3714,13,0.065269316,0.3192,,,,,,239,0,239,0,1,,,,,
,,810631,001,2023-07-31_12h45.28.405,arm3_eps,2022.2.5,Win32,119.8465964,5ee95917bdb5522f9ee95e4f,64c7fed44a04f777bb1e18ce,64c800c48c6a43ce13ca8217,right,1,0.75,0.3714,13,0.082924771,0.1502,,,,,,240,0,240,0,1,,,,,
,,810631,001,2023-07-31_12h45.28.405,arm3_eps,2022.2.5,Win32,119.8465964,5ee95917bdb5522f9ee95e4f,64c7fed44a04f777bb1e18ce,64c800c48c6a43ce13ca8217,right,1,0.75,0.3714,13,0.093605714,0.1014,,,,,,241,0,241,0,1,,,,,
,,810631,001,2023-07-31_12h45.28.405,arm3_eps,2022.2.5,Win32,119.8465964,5ee95917bdb5522f9ee95e4f,64c7fed44a04f777bb1e18ce,64c800c48c6a43ce13ca8217,up,1,0.75,0.3714,14,0,0.167,,,,,,242,0,242,0,1,,,,,
,,810631,001,2023-07-31_12h45.28.405,arm3_eps,2022.2.5,Win32,119.8465964,5ee95917bdb5522f9ee95e4f,64c7fed44a04f777bb1e18ce,64c800c48c6a43ce13ca8217,right,1,0.75,0.3714,14,0.016572167,0.1491,,,,,,243,0,243,0,1,,,,,
,,810631,001,2023-07-31_12h45.28.405,arm3_eps,2022.2.5,Win32,119.8465964,5ee95917bdb5522f9ee95e4f,64c7fed44a04f777bb1e18ce,64c800c48c6a43ce13ca8217,right,1,0.75,0.3714,14,0.004683709,0.1501,,,,,,244,0,244,0,1,,,,,
,,810631,001,2023-07-31_12h45.28.405,arm3_eps,2022.2.5,Win32,119.8465964,5ee95917bdb5522f9ee95e4f,64c7fed44a04f777bb1e18ce,64c800c48c6a43ce13ca8217,right,1,0.75,0.3714,14,-0.007639379,0.1501,,,,,,245,0,245,0,1,,,,,
,,810631,001,2023-07-31_12h45.28.405,arm3_eps,2022.2.5,Win32,119.8465964,5ee95917bdb5522f9ee95e4f,64c7fed44a04f777bb1e18ce,64c800c48c6a43ce13ca8217,right,1,0.75,0.3714,14,-0.014403178,0.1503,,,,,,246,0,246,0,1,,,,,
,,810631,001,2023-07-31_12h45.28.405,arm3_eps,2022.2.5,Win32,119.8465964,5ee95917bdb5522f9ee95e4f,64c7fed44a04f777bb1e18ce,64c800c48c6a43ce13ca8217,up,1,0.75,0.3714,15,0,0.6835,,,,,,247,0,247,0,1,,,,,
,,810631,001,2023-07-31_12h45.28.405,arm3_eps,2022.2.5,Win32,119.8465964,5ee95917bdb5522f9ee95e4f,64c7fed44a04f777bb1e18ce,64c800c48c6a43ce13ca8217,right,1,0.75,0.3714,15,0.017204074,0.1668,,,,,,248,0,248,0,1,,,,,
,,810631,001,2023-07-31_12h45.28.405,arm3_eps,2022.2.5,Win32,119.8465964,5ee95917bdb5522f9ee95e4f,64c7fed44a04f777bb1e18ce,64c800c48c6a43ce13ca8217,right,1,0.75,0.3714,15,0.056826224,0.1835,,,,,,249,0,249,0,1,,,,,
,,810631,001,2023-07-31_12h45.28.405,arm3_eps,2022.2.5,Win32,119.8465964,5ee95917bdb5522f9ee95e4f,64c7fed44a04f777bb1e18ce,64c800c48c6a43ce13ca8217,right,1,0.75,0.3714,15,0.046689039,0.1168,,,,,,250,0,250,0,1,,,,,
,,810631,001,2023-07-31_12h45.28.405,arm3_eps,2022.2.5,Win32,119.8465964,5ee95917bdb5522f9ee95e4f,64c7fed44a04f777bb1e18ce,64c800c48c6a43ce13ca8217,right,1,0.75,0.3714,15,0.043863616,0.1498,,,,,,251,0,251,0,1,,,,,
,,810631,001,2023-07-31_12h45.28.405,arm3_eps,2022.2.5,Win32,119.8465964,5ee95917bdb5522f9ee95e4f,64c7fed44a04f777bb1e18ce,64c800c48c6a43ce13ca8217,right,1,0.75,0.3714,15,0.086990442,0.1337,,,,,,252,0,252,0,1,,,,,
,,810631,001,2023-07-31_12h45.28.405,arm3_eps,2022.2.5,Win32,119.8465964,5ee95917bdb5522f9ee95e4f,64c7fed44a04f777bb1e18ce,64c800c48c6a43ce13ca8217,right,1,0.75,0.3714,15,0.079255889,0.1169,,,,,,253,0,253,0,1,,,,,
,,810631,001,2023-07-31_12h45.28.405,arm3_eps,2022.2.5,Win32,119.8465964,5ee95917bdb5522f9ee95e4f,64c7fed44a04f777bb1e18ce,64c800c48c6a43ce13ca8217,up,-1,0.75,0.3714,16,0,0.2002,,,,,,254,0,254,0,1,,,,,
,,810631,001,2023-07-31_12h45.28.405,arm3_eps,2022.2.5,Win32,119.8465964,5ee95917bdb5522f9ee95e4f,64c7fed44a04f777bb1e18ce,64c800c48c6a43ce13ca8217,right,-1,0.75,0.3714,16,0.007271847,0.1835,,,,,,255,0,255,0,1,,,,,
