space_bar.keys,space_bar.rt,participant,session,date,expName,psychopyVersion,OS,frameRate,PROLIFIC_PID,STUDY_ID,SESSION_ID,resp.keys,state,q_prob,eps_prob,score,price,resp.rt,train.thisRepN,train.thisTrialN,train.thisN,train.thisIndex,train.ran,steps.thisRepN,steps.thisTrialN,steps.thisN,steps.thisIndex,steps.ran,blocks.thisRepN,blocks.thisTrialN,blocks.thisN,blocks.thisIndex,blocks.ran
space,21.0889,821332,001,2023-07-31_20h47.00.307,arm3_eps,2022.2.5,Win32,59.84440455,6116b0c58bb19949da9ef584,64c7fed44a04f777bb1e18ce,64c8011c936f7e64ed969566,,,,,,,,,,,,,,,,,,,,,,
space,4.6106,821332,001,2023-07-31_20h47.00.307,arm3_eps,2022.2.5,Win32,59.84440455,6116b0c58bb19949da9ef584,64c7fed44a04f777bb1e18ce,64c8011c936f7e64ed969566,,,,,,,,,,,,,,,,,,,,,,
space,9.7236,821332,001,2023-07-31_20h47.00.307,arm3_eps,2022.2.5,Win32,59.84440455,6116b0c58bb19949da9ef584,64c7fed44a04f777bb1e18ce,64c8011c936f7e64ed969566,,,,,,,,,,,,,,,,,,,,,,
space,24.9312,821332,001,2023-07-31_20h47.00.307,arm3_eps,2022.2.5,Win32,59.84440455,6116b0c58bb19949da9ef584,64c7fed44a04f777bb1e18ce,64c8011c936f7e64ed969566,,,,,,,,,,,,,,,,,,,,,,
space,17.5247,821332,001,2023-07-31_20h47.00.307,arm3_eps,2022.2.5,Win32,59.84440455,6116b0c58bb19949da9ef584,64c7fed44a04f777bb1e18ce,64c8011c936f7e64ed969566,,,,,,,,,,,,,,,,,,,,,,
space,13.2606,821332,001,2023-07-31_20h47.00.307,arm3_eps,2022.2.5,Win32,59.84440455,6116b0c58bb19949da9ef584,64c7fed44a04f777bb1e18ce,64c8011c936f7e64ed969566,,,,,,,,,,,,,,,,,,,,,,
space,3.3013,821332,001,2023-07-31_20h47.00.307,arm3_eps,2022.2.5,Win32,59.84440455,6116b0c58bb19949da9ef584,64c7fed44a04f777bb1e18ce,64c8011c936f7e64ed969566,,,,,,,,,,,,,,,,,,,,,,
,,821332,001,2023-07-31_20h47.00.307,arm3_eps,2022.2.5,Win32,59.84440455,6116b0c58bb19949da9ef584,64c7fed44a04f777bb1e18ce,64c8011c936f7e64ed969566,right,1,1,0.2429,0,-0.011842733,2.4265,0,0,0,0,1,,,,,,,,,,
,,821332,001,2023-07-31_20h47.00.307,arm3_eps,2022.2.5,Win32,59.84440455,6116b0c58bb19949da9ef584,64c7fed44a04f777bb1e18ce,64c8011c936f7e64ed969566,up,-1,1,0.2429,1,0,7.8897,1,0,1,0,1,,,,,,,,,,
,,821332,001,2023-07-31_20h47.00.307,arm3_eps,2022.2.5,Win32,59.84440455,6116b0c58bb19949da9ef584,64c7fed44a04f777bb1e18ce,64c8011c936f7e64ed969566,down,1,1,0.2429,2,0,2.7009,2,0,2,0,1,,,,,,,,,,
,,821332,001,2023-07-31_20h47.00.307,arm3_eps,2022.2.5,Win32,59.84440455,6116b0c58bb19949da9ef584,64c7fed44a04f777bb1e18ce,64c8011c936f7e64ed969566,up,1,1,0.2429,3,0,2.7651,3,0,3,0,1,,,,,,,,,,
,,821332,001,2023-07-31_20h47.00.307,arm3_eps,2022.2.5,Win32,59.84440455,6116b0c58bb19949da9ef584,64c7fed44a04f777bb1e18ce,64c8011c936f7e64ed969566,up,1,1,0.2429,4,0,3.3441,4,0,4,0,1,,,,,,,,,,
,,821332,001,2023-07-31_20h47.00.307,arm3_eps,2022.2.5,Win32,59.84440455,6116b0c58bb19949da9ef584,64c7fed44a04f777bb1e18ce,64c8011c936f7e64ed969566,up,1,1,0.2429,5,0,4.1797,5,0,5,0,1,,,,,,,,,,
,,821332,001,2023-07-31_20h47.00.307,arm3_eps,2022.2.5,Win32,59.84440455,6116b0c58bb19949da9ef584,64c7fed44a04f777bb1e18ce,64c8011c936f7e64ed969566,down,1,1,0.2429,4,0,2.3534,6,0,6,0,1,,,,,,,,,,
,,821332,001,2023-07-31_20h47.00.307,arm3_eps,2022.2.5,Win32,59.84440455,6116b0c58bb19949da9ef584,64c7fed44a04f777bb1e18ce,64c8011c936f7e64ed969566,up,-1,1,0.2429,5,0,2.0621,7,0,7,0,1,,,,,,,,,,
,,821332,001,2023-07-31_20h47.00.307,arm3_eps,2022.2.5,Win32,59.84440455,6116b0c58bb19949da9ef584,64c7fed44a04f777bb1e18ce,64c8011c936f7e64ed969566,down,-1,1,0.2429,6,0,1.3512,8,0,8,0,1,,,,,,,,,,
,,821332,001,2023-07-31_20h47.00.307,arm3_eps,2022.2.5,Win32,59.84440455,6116b0c58bb19949da9ef584,64c7fed44a04f777bb1e18ce,64c8011c936f7e64ed969566,up,1,1,0.2429,5,0,1.2077,9,0,9,0,1,,,,,,,,,,
,,821332,001,2023-07-31_20h47.00.307,arm3_eps,2022.2.5,Win32,59.84440455,6116b0c58bb19949da9ef584,64c7fed44a04f777bb1e18ce,64c8011c936f7e64ed969566,up,-1,1,0.2429,6,0,1.9194,10,0,10,0,1,,,,,,,,,,
,,821332,001,2023-07-31_20h47.00.307,arm3_eps,2022.2.5,Win32,59.84440455,6116b0c58bb19949da9ef584,64c7fed44a04f777bb1e18ce,64c8011c936f7e64ed969566,down,-1,1,0.2429,7,0,1.2033,11,0,11,0,1,,,,,,,,,,
,,821332,001,2023-07-31_20h47.00.307,arm3_eps,2022.2.5,Win32,59.84440455,6116b0c58bb19949da9ef584,64c7fed44a04f777bb1e18ce,64c8011c936f7e64ed969566,down,-1,1,0.2429,8,0,3.0037,12,0,12,0,1,,,,,,,,,,
,,821332,001,2023-07-31_20h47.00.307,arm3_eps,2022.2.5,Win32,59.84440455,6116b0c58bb19949da9ef584,64c7fed44a04f777bb1e18ce,64c8011c936f7e64ed969566,up,-1,1,0.2429,7,0,1.594,13,0,13,0,1,,,,,,,,,,
,,821332,001,2023-07-31_20h47.00.307,arm3_eps,2022.2.5,Win32,59.84440455,6116b0c58bb19949da9ef584,64c7fed44a04f777bb1e18ce,64c8011c936f7e64ed969566,down,1,1,0.2429,8,0,3.0607,14,0,14,0,1,,,,,,,,,,
,,821332,001,2023-07-31_20h47.00.307,arm3_eps,2022.2.5,Win32,59.84440455,6116b0c58bb19949da9ef584,64c7fed44a04f777bb1e18ce,64c8011c936f7e64ed969566,down,-1,1,0.2429,7,0,3.5362,15,0,15,0,1,,,,,,,,,,
,,821332,001,2023-07-31_20h47.00.307,arm3_eps,2022.2.5,Win32,59.84440455,6116b0c58bb19949da9ef584,64c7fed44a04f777bb1e18ce,64c8011c936f7e64ed969566,up,-1,1,0.2429,6,0,3.9861,16,0,16,0,1,,,,,,,,,,
,,821332,001,2023-07-31_20h47.00.307,arm3_eps,2022.2.5,Win32,59.84440455,6116b0c58bb19949da9ef584,64c7fed44a04f777bb1e18ce,64c8011c936f7e64ed969566,down,-1,1,0.2429,7,0,1.9482,17,0,17,0,1,,,,,,,,,,
,,821332,001,2023-07-31_20h47.00.307,arm3_eps,2022.2.5,Win32,59.84440455,6116b0c58bb19949da9ef584,64c7fed44a04f777bb1e18ce,64c8011c936f7e64ed969566,down,1,1,0.2429,8,0,1.4556,18,0,18,0,1,,,,,,,,,,
,,821332,001,2023-07-31_20h47.00.307,arm3_eps,2022.2.5,Win32,59.84440455,6116b0c58bb19949da9ef584,64c7fed44a04f777bb1e18ce,64c8011c936f7e64ed969566,up,1,1,0.2429,9,0,1.612,19,0,19,0,1,,,,,,,,,,
,,821332,001,2023-07-31_20h47.00.307,arm3_eps,2022.2.5,Win32,59.84440455,6116b0c58bb19949da9ef584,64c7fed44a04f777bb1e18ce,64c8011c936f7e64ed969566,up,-1,1,0.2429,10,0,1.2735,20,0,20,0,1,,,,,,,,,,
,,821332,001,2023-07-31_20h47.00.307,arm3_eps,2022.2.5,Win32,59.84440455,6116b0c58bb19949da9ef584,64c7fed44a04f777bb1e18ce,64c8011c936f7e64ed969566,right,-1,1,0.2429,10,-0.001538392,1.235,21,0,21,0,1,,,,,,,,,,
,,821332,001,2023-07-31_20h47.00.307,arm3_eps,2022.2.5,Win32,59.84440455,6116b0c58bb19949da9ef584,64c7fed44a04f777bb1e18ce,64c8011c936f7e64ed969566,up,-1,1,0.2429,9,0,2.1563,22,0,22,0,1,,,,,,,,,,
,,821332,001,2023-07-31_20h47.00.307,arm3_eps,2022.2.5,Win32,59.84440455,6116b0c58bb19949da9ef584,64c7fed44a04f777bb1e18ce,64c8011c936f7e64ed969566,up,-1,1,0.2429,8,0,2.3337,23,0,23,0,1,,,,,,,,,,
,,821332,001,2023-07-31_20h47.00.307,arm3_eps,2022.2.5,Win32,59.84440455,6116b0c58bb19949da9ef584,64c7fed44a04f777bb1e18ce,64c8011c936f7e64ed969566,down,1,1,0.2429,9,0,1.2512,24,0,24,0,1,,,,,,,,,,
,,821332,001,2023-07-31_20h47.00.307,arm3_eps,2022.2.5,Win32,59.84440455,6116b0c58bb19949da9ef584,64c7fed44a04f777bb1e18ce,64c8011c936f7e64ed969566,right,1,1,0.2429,9,0.010005198,6.4252,25,0,25,0,1,,,,,,,,,,
,,821332,001,2023-07-31_20h47.00.307,arm3_eps,2022.2.5,Win32,59.84440455,6116b0c58bb19949da9ef584,64c7fed44a04f777bb1e18ce,64c8011c936f7e64ed969566,up,1,1,0.2429,10,0,1.875,26,0,26,0,1,,,,,,,,,,
,,821332,001,2023-07-31_20h47.00.307,arm3_eps,2022.2.5,Win32,59.84440455,6116b0c58bb19949da9ef584,64c7fed44a04f777bb1e18ce,64c8011c936f7e64ed969566,up,-1,1,0.2429,11,0,1.8764,27,0,27,0,1,,,,,,,,,,
,,821332,001,2023-07-31_20h47.00.307,arm3_eps,2022.2.5,Win32,59.84440455,6116b0c58bb19949da9ef584,64c7fed44a04f777bb1e18ce,64c8011c936f7e64ed969566,down,1,1,0.2429,12,0,1.6128,28,0,28,0,1,,,,,,,,,,
,,821332,001,2023-07-31_20h47.00.307,arm3_eps,2022.2.5,Win32,59.84440455,6116b0c58bb19949da9ef584,64c7fed44a04f777bb1e18ce,64c8011c936f7e64ed969566,up,1,1,0.2429,13,0,1.4947,29,0,29,0,1,,,,,,,,,,
,,821332,001,2023-07-31_20h47.00.307,arm3_eps,2022.2.5,Win32,59.84440455,6116b0c58bb19949da9ef584,64c7fed44a04f777bb1e18ce,64c8011c936f7e64ed969566,down,1,1,0.2429,12,0,1.399,30,0,30,0,1,,,,,,,,,,
,,821332,001,2023-07-31_20h47.00.307,arm3_eps,2022.2.5,Win32,59.84440455,6116b0c58bb19949da9ef584,64c7fed44a04f777bb1e18ce,64c8011c936f7e64ed969566,right,1,1,0.2429,12,-0.004732306,2.028,31,0,31,0,1,,,,,,,,,,
,,821332,001,2023-07-31_20h47.00.307,arm3_eps,2022.2.5,Win32,59.84440455,6116b0c58bb19949da9ef584,64c7fed44a04f777bb1e18ce,64c8011c936f7e64ed969566,up,-1,1,0.2429,13,0,1.0919,32,0,32,0,1,,,,,,,,,,
,,821332,001,2023-07-31_20h47.00.307,arm3_eps,2022.2.5,Win32,59.84440455,6116b0c58bb19949da9ef584,64c7fed44a04f777bb1e18ce,64c8011c936f7e64ed969566,down,-1,1,0.2429,14,0,1.8327,33,0,33,0,1,,,,,,,,,,
,,821332,001,2023-07-31_20h47.00.307,arm3_eps,2022.2.5,Win32,59.84440455,6116b0c58bb19949da9ef584,64c7fed44a04f777bb1e18ce,64c8011c936f7e64ed969566,down,1,1,0.2429,15,0,1.8067,34,0,34,0,1,,,,,,,,,,
,,821332,001,2023-07-31_20h47.00.307,arm3_eps,2022.2.5,Win32,59.84440455,6116b0c58bb19949da9ef584,64c7fed44a04f777bb1e18ce,64c8011c936f7e64ed969566,up,1,1,0.2429,16,0,1.6385,35,0,35,0,1,,,,,,,,,,
,,821332,001,2023-07-31_20h47.00.307,arm3_eps,2022.2.5,Win32,59.84440455,6116b0c58bb19949da9ef584,64c7fed44a04f777bb1e18ce,64c8011c936f7e64ed969566,up,1,1,0.2429,17,0,1.2762,36,0,36,0,1,,,,,,,,,,
,,821332,001,2023-07-31_20h47.00.307,arm3_eps,2022.2.5,Win32,59.84440455,6116b0c58bb19949da9ef584,64c7fed44a04f777bb1e18ce,64c8011c936f7e64ed969566,down,1,1,0.2429,16,0,1.4733,37,0,37,0,1,,,,,,,,,,
,,821332,001,2023-07-31_20h47.00.307,arm3_eps,2022.2.5,Win32,59.84440455,6116b0c58bb19949da9ef584,64c7fed44a04f777bb1e18ce,64c8011c936f7e64ed969566,right,1,1,0.2429,16,0.013309416,1.736,38,0,38,0,1,,,,,,,,,,
,,821332,001,2023-07-31_20h47.00.307,arm3_eps,2022.2.5,Win32,59.84440455,6116b0c58bb19949da9ef584,64c7fed44a04f777bb1e18ce,64c8011c936f7e64ed969566,up,1,1,0.2429,17,0,0.9887,39,0,39,0,1,,,,,,,,,,
,,821332,001,2023-07-31_20h47.00.307,arm3_eps,2022.2.5,Win32,59.84440455,6116b0c58bb19949da9ef584,64c7fed44a04f777bb1e18ce,64c8011c936f7e64ed969566,down,1,1,0.2429,16,0,1.8235,40,0,40,0,1,,,,,,,,,,
,,821332,001,2023-07-31_20h47.00.307,arm3_eps,2022.2.5,Win32,59.84440455,6116b0c58bb19949da9ef584,64c7fed44a04f777bb1e18ce,64c8011c936f7e64ed969566,right,1,1,0.2429,16,0.018109054,1.04,41,0,41,0,1,,,,,,,,,,
,,821332,001,2023-07-31_20h47.00.307,arm3_eps,2022.2.5,Win32,59.84440455,6116b0c58bb19949da9ef584,64c7fed44a04f777bb1e18ce,64c8011c936f7e64ed969566,up,1,1,0.2429,17,0,1.4225,42,0,42,0,1,,,,,,,,,,
,,821332,001,2023-07-31_20h47.00.307,arm3_eps,2022.2.5,Win32,59.84440455,6116b0c58bb19949da9ef584,64c7fed44a04f777bb1e18ce,64c8011c936f7e64ed969566,up,1,1,0.2429,18,0,1.4102,43,0,43,0,1,,,,,,,,,,
,,821332,001,2023-07-31_20h47.00.307,arm3_eps,2022.2.5,Win32,59.84440455,6116b0c58bb19949da9ef584,64c7fed44a04f777bb1e18ce,64c8011c936f7e64ed969566,down,1,1,0.2429,17,0,2.2615,44,0,44,0,1,,,,,,,,,,
,,821332,001,2023-07-31_20h47.00.307,arm3_eps,2022.2.5,Win32,59.84440455,6116b0c58bb19949da9ef584,64c7fed44a04f777bb1e18ce,64c8011c936f7e64ed969566,up,1,1,0.2429,18,0,3.2122,45,0,45,0,1,,,,,,,,,,
,,821332,001,2023-07-31_20h47.00.307,arm3_eps,2022.2.5,Win32,59.84440455,6116b0c58bb19949da9ef584,64c7fed44a04f777bb1e18ce,64c8011c936f7e64ed969566,right,1,1,0.2429,18,0.003160265,2.6162,46,0,46,0,1,,,,,,,,,,
,,821332,001,2023-07-31_20h47.00.307,arm3_eps,2022.2.5,Win32,59.84440455,6116b0c58bb19949da9ef584,64c7fed44a04f777bb1e18ce,64c8011c936f7e64ed969566,up,1,1,0.2429,19,0,0.6759,47,0,47,0,1,,,,,,,,,,
,,821332,001,2023-07-31_20h47.00.307,arm3_eps,2022.2.5,Win32,59.84440455,6116b0c58bb19949da9ef584,64c7fed44a04f777bb1e18ce,64c8011c936f7e64ed969566,right,1,1,0.2429,19,-0.002852755,1.7754,48,0,48,0,1,,,,,,,,,,
,,821332,001,2023-07-31_20h47.00.307,arm3_eps,2022.2.5,Win32,59.84440455,6116b0c58bb19949da9ef584,64c7fed44a04f777bb1e18ce,64c8011c936f7e64ed969566,up,1,1,0.2429,19,-0.002852755,1.0987,49,0,49,0,1,,,,,,,,,,
space,21.7452,821332,001,2023-07-31_20h47.00.307,arm3_eps,2022.2.5,Win32,59.84440455,6116b0c58bb19949da9ef584,64c7fed44a04f777bb1e18ce,64c8011c936f7e64ed969566,,,,,,,,,,,,,,,,,,,,,,
space,15.0099,821332,001,2023-07-31_20h47.00.307,arm3_eps,2022.2.5,Win32,59.84440455,6116b0c58bb19949da9ef584,64c7fed44a04f777bb1e18ce,64c8011c936f7e64ed969566,,,,,,,,,,,,,,,,,,,,,,
space,9.8898,821332,001,2023-07-31_20h47.00.307,arm3_eps,2022.2.5,Win32,59.84440455,6116b0c58bb19949da9ef584,64c7fed44a04f777bb1e18ce,64c8011c936f7e64ed969566,,,,,,,,,,,,,,,,,,,,,,
space,5.8052,821332,001,2023-07-31_20h47.00.307,arm3_eps,2022.2.5,Win32,59.84440455,6116b0c58bb19949da9ef584,64c7fed44a04f777bb1e18ce,64c8011c936f7e64ed969566,,,,,,,,,,,,,,,,,,,,,,
space,5.9996,821332,001,2023-07-31_20h47.00.307,arm3_eps,2022.2.5,Win32,59.84440455,6116b0c58bb19949da9ef584,64c7fed44a04f777bb1e18ce,64c8011c936f7e64ed969566,,,,,,,,,,,,,,,,,,,,,,
space,2.9183,821332,001,2023-07-31_20h47.00.307,arm3_eps,2022.2.5,Win32,59.84440455,6116b0c58bb19949da9ef584,64c7fed44a04f777bb1e18ce,64c8011c936f7e64ed969566,,,,,,,,,,,,,,,,,,,,,,
,,821332,001,2023-07-31_20h47.00.307,arm3_eps,2022.2.5,Win32,59.84440455,6116b0c58bb19949da9ef584,64c7fed44a04f777bb1e18ce,64c8011c936f7e64ed969566,up,-1,0.75,0.2429,1,0,0.7371,0,0,0,0,1,,,,,,,,,,
,,821332,001,2023-07-31_20h47.00.307,arm3_eps,2022.2.5,Win32,59.84440455,6116b0c58bb19949da9ef584,64c7fed44a04f777bb1e18ce,64c8011c936f7e64ed969566,right,-1,0.75,0.2429,1,0.002522564,2.0995,1,0,1,0,1,,,,,,,,,,
,,821332,001,2023-07-31_20h47.00.307,arm3_eps,2022.2.5,Win32,59.84440455,6116b0c58bb19949da9ef584,64c7fed44a04f777bb1e18ce,64c8011c936f7e64ed969566,right,-1,0.75,0.2429,1,0.001556111,0.9335,2,0,2,0,1,,,,,,,,,,
,,821332,001,2023-07-31_20h47.00.307,arm3_eps,2022.2.5,Win32,59.84440455,6116b0c58bb19949da9ef584,64c7fed44a04f777bb1e18ce,64c8011c936f7e64ed969566,down,-1,0.75,0.2429,2,0,1.0808,3,0,3,0,1,,,,,,,,,,
,,821332,001,2023-07-31_20h47.00.307,arm3_eps,2022.2.5,Win32,59.84440455,6116b0c58bb19949da9ef584,64c7fed44a04f777bb1e18ce,64c8011c936f7e64ed969566,down,-1,0.75,0.2429,3,0,1.7104,4,0,4,0,1,,,,,,,,,,
,,821332,001,2023-07-31_20h47.00.307,arm3_eps,2022.2.5,Win32,59.84440455,6116b0c58bb19949da9ef584,64c7fed44a04f777bb1e18ce,64c8011c936f7e64ed969566,down,1,0.75,0.2429,4,0,1.2247,5,0,5,0,1,,,,,,,,,,
,,821332,001,2023-07-31_20h47.00.307,arm3_eps,2022.2.5,Win32,59.84440455,6116b0c58bb19949da9ef584,64c7fed44a04f777bb1e18ce,64c8011c936f7e64ed969566,right,1,0.75,0.2429,4,0.02412767,1.589,6,0,6,0,1,,,,,,,,,,
,,821332,001,2023-07-31_20h47.00.307,arm3_eps,2022.2.5,Win32,59.84440455,6116b0c58bb19949da9ef584,64c7fed44a04f777bb1e18ce,64c8011c936f7e64ed969566,up,-1,0.75,0.2429,5,0,1.2093,7,0,7,0,1,,,,,,,,,,
,,821332,001,2023-07-31_20h47.00.307,arm3_eps,2022.2.5,Win32,59.84440455,6116b0c58bb19949da9ef584,64c7fed44a04f777bb1e18ce,64c8011c936f7e64ed969566,down,-1,0.75,0.2429,6,0,1.4378,8,0,8,0,1,,,,,,,,,,
,,821332,001,2023-07-31_20h47.00.307,arm3_eps,2022.2.5,Win32,59.84440455,6116b0c58bb19949da9ef584,64c7fed44a04f777bb1e18ce,64c8011c936f7e64ed969566,right,-1,0.75,0.2429,6,-0.001627111,1.4329,9,0,9,0,1,,,,,,,,,,
,,821332,001,2023-07-31_20h47.00.307,arm3_eps,2022.2.5,Win32,59.84440455,6116b0c58bb19949da9ef584,64c7fed44a04f777bb1e18ce,64c8011c936f7e64ed969566,right,-1,0.75,0.2429,6,0.007495756,0.4241,10,0,10,0,1,,,,,,,,,,
,,821332,001,2023-07-31_20h47.00.307,arm3_eps,2022.2.5,Win32,59.84440455,6116b0c58bb19949da9ef584,64c7fed44a04f777bb1e18ce,64c8011c936f7e64ed969566,down,-1,0.75,0.2429,7,0,0.7755,11,0,11,0,1,,,,,,,,,,
,,821332,001,2023-07-31_20h47.00.307,arm3_eps,2022.2.5,Win32,59.84440455,6116b0c58bb19949da9ef584,64c7fed44a04f777bb1e18ce,64c8011c936f7e64ed969566,down,1,0.75,0.2429,8,0,2.1257,12,0,12,0,1,,,,,,,,,,
,,821332,001,2023-07-31_20h47.00.307,arm3_eps,2022.2.5,Win32,59.84440455,6116b0c58bb19949da9ef584,64c7fed44a04f777bb1e18ce,64c8011c936f7e64ed969566,right,1,0.75,0.2429,8,0.03114772,1.5572,13,0,13,0,1,,,,,,,,,,
,,821332,001,2023-07-31_20h47.00.307,arm3_eps,2022.2.5,Win32,59.84440455,6116b0c58bb19949da9ef584,64c7fed44a04f777bb1e18ce,64c8011c936f7e64ed969566,up,1,0.75,0.2429,9,0,0.4553,14,0,14,0,1,,,,,,,,,,
,,821332,001,2023-07-31_20h47.00.307,arm3_eps,2022.2.5,Win32,59.84440455,6116b0c58bb19949da9ef584,64c7fed44a04f777bb1e18ce,64c8011c936f7e64ed969566,up,1,0.75,0.2429,10,0,1.4837,15,0,15,0,1,,,,,,,,,,
,,821332,001,2023-07-31_20h47.00.307,arm3_eps,2022.2.5,Win32,59.84440455,6116b0c58bb19949da9ef584,64c7fed44a04f777bb1e18ce,64c8011c936f7e64ed969566,right,1,0.75,0.2429,10,0.026211686,1.6918,16,0,16,0,1,,,,,,,,,,
,,821332,001,2023-07-31_20h47.00.307,arm3_eps,2022.2.5,Win32,59.84440455,6116b0c58bb19949da9ef584,64c7fed44a04f777bb1e18ce,64c8011c936f7e64ed969566,down,1,0.75,0.2429,9,0,0.9005,17,0,17,0,1,,,,,,,,,,
,,821332,001,2023-07-31_20h47.00.307,arm3_eps,2022.2.5,Win32,59.84440455,6116b0c58bb19949da9ef584,64c7fed44a04f777bb1e18ce,64c8011c936f7e64ed969566,up,1,0.75,0.2429,10,0,1.4056,18,0,18,0,1,,,,,,,,,,
,,821332,001,2023-07-31_20h47.00.307,arm3_eps,2022.2.5,Win32,59.84440455,6116b0c58bb19949da9ef584,64c7fed44a04f777bb1e18ce,64c8011c936f7e64ed969566,right,1,0.75,0.2429,10,-0.004305655,1.7529,19,0,19,0,1,,,,,,,,,,
,,821332,001,2023-07-31_20h47.00.307,arm3_eps,2022.2.5,Win32,59.84440455,6116b0c58bb19949da9ef584,64c7fed44a04f777bb1e18ce,64c8011c936f7e64ed969566,right,1,0.75,0.2429,10,0.015420784,0.6616,20,0,20,0,1,,,,,,,,,,
,,821332,001,2023-07-31_20h47.00.307,arm3_eps,2022.2.5,Win32,59.84440455,6116b0c58bb19949da9ef584,64c7fed44a04f777bb1e18ce,64c8011c936f7e64ed969566,up,1,0.75,0.2429,11,0,0.4402,21,0,21,0,1,,,,,,,,,,
,,821332,001,2023-07-31_20h47.00.307,arm3_eps,2022.2.5,Win32,59.84440455,6116b0c58bb19949da9ef584,64c7fed44a04f777bb1e18ce,64c8011c936f7e64ed969566,down,1,0.75,0.2429,10,0,1.1659,22,0,22,0,1,,,,,,,,,,
,,821332,001,2023-07-31_20h47.00.307,arm3_eps,2022.2.5,Win32,59.84440455,6116b0c58bb19949da9ef584,64c7fed44a04f777bb1e18ce,64c8011c936f7e64ed969566,up,-1,0.75,0.2429,11,0,1.7505,23,0,23,0,1,,,,,,,,,,
,,821332,001,2023-07-31_20h47.00.307,arm3_eps,2022.2.5,Win32,59.84440455,6116b0c58bb19949da9ef584,64c7fed44a04f777bb1e18ce,64c8011c936f7e64ed969566,right,-1,0.75,0.2429,11,-0.029690271,1.6684,24,0,24,0,1,,,,,,,,,,
,,821332,001,2023-07-31_20h47.00.307,arm3_eps,2022.2.5,Win32,59.84440455,6116b0c58bb19949da9ef584,64c7fed44a04f777bb1e18ce,64c8011c936f7e64ed969566,up,-1,0.75,0.2429,10,0,0.6411,25,0,25,0,1,,,,,,,,,,
,,821332,001,2023-07-31_20h47.00.307,arm3_eps,2022.2.5,Win32,59.84440455,6116b0c58bb19949da9ef584,64c7fed44a04f777bb1e18ce,64c8011c936f7e64ed969566,right,-1,0.75,0.2429,10,-0.005653006,2.1215,26,0,26,0,1,,,,,,,,,,
,,821332,001,2023-07-31_20h47.00.307,arm3_eps,2022.2.5,Win32,59.84440455,6116b0c58bb19949da9ef584,64c7fed44a04f777bb1e18ce,64c8011c936f7e64ed969566,right,-1,0.75,0.2429,10,-0.011496224,0.3533,27,0,27,0,1,,,,,,,,,,
,,821332,001,2023-07-31_20h47.00.307,arm3_eps,2022.2.5,Win32,59.84440455,6116b0c58bb19949da9ef584,64c7fed44a04f777bb1e18ce,64c8011c936f7e64ed969566,down,1,0.75,0.2429,11,0,0.5651,28,0,28,0,1,,,,,,,,,,
,,821332,001,2023-07-31_20h47.00.307,arm3_eps,2022.2.5,Win32,59.84440455,6116b0c58bb19949da9ef584,64c7fed44a04f777bb1e18ce,64c8011c936f7e64ed969566,right,1,0.75,0.2429,11,-0.022785125,1.6232,29,0,29,0,1,,,,,,,,,,
,,821332,001,2023-07-31_20h47.00.307,arm3_eps,2022.2.5,Win32,59.84440455,6116b0c58bb19949da9ef584,64c7fed44a04f777bb1e18ce,64c8011c936f7e64ed969566,right,1,0.75,0.2429,11,-0.012175688,1.0654,30,0,30,0,1,,,,,,,,,,
,,821332,001,2023-07-31_20h47.00.307,arm3_eps,2022.2.5,Win32,59.84440455,6116b0c58bb19949da9ef584,64c7fed44a04f777bb1e18ce,64c8011c936f7e64ed969566,down,-1,0.75,0.2429,10,0,0.7861,31,0,31,0,1,,,,,,,,,,
,,821332,001,2023-07-31_20h47.00.307,arm3_eps,2022.2.5,Win32,59.84440455,6116b0c58bb19949da9ef584,64c7fed44a04f777bb1e18ce,64c8011c936f7e64ed969566,right,-1,0.75,0.2429,10,0.008936996,2.0039,32,0,32,0,1,,,,,,,,,,
,,821332,001,2023-07-31_20h47.00.307,arm3_eps,2022.2.5,Win32,59.84440455,6116b0c58bb19949da9ef584,64c7fed44a04f777bb1e18ce,64c8011c936f7e64ed969566,up,-1,0.75,0.2429,10,0,0.577,33,0,33,0,1,,,,,,,,,,
,,821332,001,2023-07-31_20h47.00.307,arm3_eps,2022.2.5,Win32,59.84440455,6116b0c58bb19949da9ef584,64c7fed44a04f777bb1e18ce,64c8011c936f7e64ed969566,right,-1,0.75,0.2429,10,-0.013184542,2.1676,34,0,34,0,1,,,,,,,,,,
,,821332,001,2023-07-31_20h47.00.307,arm3_eps,2022.2.5,Win32,59.84440455,6116b0c58bb19949da9ef584,64c7fed44a04f777bb1e18ce,64c8011c936f7e64ed969566,down,-1,0.75,0.2429,11,0,0.8941,35,0,35,0,1,,,,,,,,,,
,,821332,001,2023-07-31_20h47.00.307,arm3_eps,2022.2.5,Win32,59.84440455,6116b0c58bb19949da9ef584,64c7fed44a04f777bb1e18ce,64c8011c936f7e64ed969566,right,-1,0.75,0.2429,11,-0.004769461,1.8976,36,0,36,0,1,,,,,,,,,,
,,821332,001,2023-07-31_20h47.00.307,arm3_eps,2022.2.5,Win32,59.84440455,6116b0c58bb19949da9ef584,64c7fed44a04f777bb1e18ce,64c8011c936f7e64ed969566,right,-1,0.75,0.2429,11,-0.010516144,0.8407,37,0,37,0,1,,,,,,,,,,
,,821332,001,2023-07-31_20h47.00.307,arm3_eps,2022.2.5,Win32,59.84440455,6116b0c58bb19949da9ef584,64c7fed44a04f777bb1e18ce,64c8011c936f7e64ed969566,down,-1,0.75,0.2429,12,0,0.6118,38,0,38,0,1,,,,,,,,,,
,,821332,001,2023-07-31_20h47.00.307,arm3_eps,2022.2.5,Win32,59.84440455,6116b0c58bb19949da9ef584,64c7fed44a04f777bb1e18ce,64c8011c936f7e64ed969566,right,-1,0.75,0.2429,12,0.011738,1.7411,39,0,39,0,1,,,,,,,,,,
,,821332,001,2023-07-31_20h47.00.307,arm3_eps,2022.2.5,Win32,59.84440455,6116b0c58bb19949da9ef584,64c7fed44a04f777bb1e18ce,64c8011c936f7e64ed969566,right,-1,0.75,0.2429,12,0.032918806,0.501,40,0,40,0,1,,,,,,,,,,
,,821332,001,2023-07-31_20h47.00.307,arm3_eps,2022.2.5,Win32,59.84440455,6116b0c58bb19949da9ef584,64c7fed44a04f777bb1e18ce,64c8011c936f7e64ed969566,up,-1,0.75,0.2429,11,0,1.9479,41,0,41,0,1,,,,,,,,,,
,,821332,001,2023-07-31_20h47.00.307,arm3_eps,2022.2.5,Win32,59.84440455,6116b0c58bb19949da9ef584,64c7fed44a04f777bb1e18ce,64c8011c936f7e64ed969566,right,-1,0.75,0.2429,11,-0.008465213,1.8171,42,0,42,0,1,,,,,,,,,,
,,821332,001,2023-07-31_20h47.00.307,arm3_eps,2022.2.5,Win32,59.84440455,6116b0c58bb19949da9ef584,64c7fed44a04f777bb1e18ce,64c8011c936f7e64ed969566,right,-1,0.75,0.2429,11,-0.039545677,0.1565,43,0,43,0,1,,,,,,,,,,
,,821332,001,2023-07-31_20h47.00.307,arm3_eps,2022.2.5,Win32,59.84440455,6116b0c58bb19949da9ef584,64c7fed44a04f777bb1e18ce,64c8011c936f7e64ed969566,down,-1,0.75,0.2429,12,0,0.5372,44,0,44,0,1,,,,,,,,,,
,,821332,001,2023-07-31_20h47.00.307,arm3_eps,2022.2.5,Win32,59.84440455,6116b0c58bb19949da9ef584,64c7fed44a04f777bb1e18ce,64c8011c936f7e64ed969566,down,-1,0.75,0.2429,12,0,1.9292,45,0,45,0,1,,,,,,,,,,
,,821332,001,2023-07-31_20h47.00.307,arm3_eps,2022.2.5,Win32,59.84440455,6116b0c58bb19949da9ef584,64c7fed44a04f777bb1e18ce,64c8011c936f7e64ed969566,right,-1,0.75,0.2429,12,-0.008419562,1.4703,46,0,46,0,1,,,,,,,,,,
,,821332,001,2023-07-31_20h47.00.307,arm3_eps,2022.2.5,Win32,59.84440455,6116b0c58bb19949da9ef584,64c7fed44a04f777bb1e18ce,64c8011c936f7e64ed969566,right,-1,0.75,0.2429,12,-0.009627094,0.4862,47,0,47,0,1,,,,,,,,,,
,,821332,001,2023-07-31_20h47.00.307,arm3_eps,2022.2.5,Win32,59.84440455,6116b0c58bb19949da9ef584,64c7fed44a04f777bb1e18ce,64c8011c936f7e64ed969566,down,-1,0.75,0.2429,13,0,1.1926,48,0,48,0,1,,,,,,,,,,
,,821332,001,2023-07-31_20h47.00.307,arm3_eps,2022.2.5,Win32,59.84440455,6116b0c58bb19949da9ef584,64c7fed44a04f777bb1e18ce,64c8011c936f7e64ed969566,up,-1,0.75,0.2429,13,0,1.198,49,0,49,0,1,,,,,,,,,,
space,15.0083,821332,001,2023-07-31_20h47.00.307,arm3_eps,2022.2.5,Win32,59.84440455,6116b0c58bb19949da9ef584,64c7fed44a04f777bb1e18ce,64c8011c936f7e64ed969566,,,,,,,,,,,,,,,,,,,,,,
space,21.9916,821332,001,2023-07-31_20h47.00.307,arm3_eps,2022.2.5,Win32,59.84440455,6116b0c58bb19949da9ef584,64c7fed44a04f777bb1e18ce,64c8011c936f7e64ed969566,,,,,,,,,,,,,,,,,,,,,,
space,0.9061,821332,001,2023-07-31_20h47.00.307,arm3_eps,2022.2.5,Win32,59.84440455,6116b0c58bb19949da9ef584,64c7fed44a04f777bb1e18ce,64c8011c936f7e64ed969566,,,,,,,,,,,,,,,,,,,,,,
,,821332,001,2023-07-31_20h47.00.307,arm3_eps,2022.2.5,Win32,59.84440455,6116b0c58bb19949da9ef584,64c7fed44a04f777bb1e18ce,64c8011c936f7e64ed969566,up,1,0.75,0.05,0,0,0.8513,0,0,0,0,1,,,,,,,,,,
,,821332,001,2023-07-31_20h47.00.307,arm3_eps,2022.2.5,Win32,59.84440455,6116b0c58bb19949da9ef584,64c7fed44a04f777bb1e18ce,64c8011c936f7e64ed969566,right,1,0.75,0.05,0,0.002481989,1.8097,1,0,1,0,1,,,,,,,,,,
,,821332,001,2023-07-31_20h47.00.307,arm3_eps,2022.2.5,Win32,59.84440455,6116b0c58bb19949da9ef584,64c7fed44a04f777bb1e18ce,64c8011c936f7e64ed969566,right,1,0.75,0.05,0,0.013584285,0.4296,2,0,2,0,1,,,,,,,,,,
,,821332,001,2023-07-31_20h47.00.307,arm3_eps,2022.2.5,Win32,59.84440455,6116b0c58bb19949da9ef584,64c7fed44a04f777bb1e18ce,64c8011c936f7e64ed969566,right,1,0.75,0.05,0,0.004345603,0.7035,3,0,3,0,1,,,,,,,,,,
,,821332,001,2023-07-31_20h47.00.307,arm3_eps,2022.2.5,Win32,59.84440455,6116b0c58bb19949da9ef584,64c7fed44a04f777bb1e18ce,64c8011c936f7e64ed969566,up,1,0.75,0.05,1,0,0.8609,4,0,4,0,1,,,,,,,,,,
,,821332,001,2023-07-31_20h47.00.307,arm3_eps,2022.2.5,Win32,59.84440455,6116b0c58bb19949da9ef584,64c7fed44a04f777bb1e18ce,64c8011c936f7e64ed969566,right,1,0.75,0.05,1,0.010181342,1.3894,5,0,5,0,1,,,,,,,,,,
,,821332,001,2023-07-31_20h47.00.307,arm3_eps,2022.2.5,Win32,59.84440455,6116b0c58bb19949da9ef584,64c7fed44a04f777bb1e18ce,64c8011c936f7e64ed969566,right,1,0.75,0.05,1,0.001717329,0.2842,6,0,6,0,1,,,,,,,,,,
,,821332,001,2023-07-31_20h47.00.307,arm3_eps,2022.2.5,Win32,59.84440455,6116b0c58bb19949da9ef584,64c7fed44a04f777bb1e18ce,64c8011c936f7e64ed969566,up,1,0.75,0.05,2,0,0.5333,7,0,7,0,1,,,,,,,,,,
,,821332,001,2023-07-31_20h47.00.307,arm3_eps,2022.2.5,Win32,59.84440455,6116b0c58bb19949da9ef584,64c7fed44a04f777bb1e18ce,64c8011c936f7e64ed969566,right,1,0.75,0.05,2,0.006825561,1.5482,8,0,8,0,1,,,,,,,,,,
,,821332,001,2023-07-31_20h47.00.307,arm3_eps,2022.2.5,Win32,59.84440455,6116b0c58bb19949da9ef584,64c7fed44a04f777bb1e18ce,64c8011c936f7e64ed969566,right,1,0.75,0.05,2,0.024585361,0.3415,9,0,9,0,1,,,,,,,,,,
,,821332,001,2023-07-31_20h47.00.307,arm3_eps,2022.2.5,Win32,59.84440455,6116b0c58bb19949da9ef584,64c7fed44a04f777bb1e18ce,64c8011c936f7e64ed969566,up,1,0.75,0.05,3,0,0.3477,10,0,10,0,1,,,,,,,,,,
,,821332,001,2023-07-31_20h47.00.307,arm3_eps,2022.2.5,Win32,59.84440455,6116b0c58bb19949da9ef584,64c7fed44a04f777bb1e18ce,64c8011c936f7e64ed969566,right,1,0.75,0.05,3,0.010342106,1.2388,11,0,11,0,1,,,,,,,,,,
,,821332,001,2023-07-31_20h47.00.307,arm3_eps,2022.2.5,Win32,59.84440455,6116b0c58bb19949da9ef584,64c7fed44a04f777bb1e18ce,64c8011c936f7e64ed969566,right,1,0.75,0.05,3,0.011284861,0.3447,12,0,12,0,1,,,,,,,,,,
,,821332,001,2023-07-31_20h47.00.307,arm3_eps,2022.2.5,Win32,59.84440455,6116b0c58bb19949da9ef584,64c7fed44a04f777bb1e18ce,64c8011c936f7e64ed969566,up,1,0.75,0.05,3,0,0.5663,13,0,13,0,1,,,,,,,,,,
,,821332,001,2023-07-31_20h47.00.307,arm3_eps,2022.2.5,Win32,59.84440455,6116b0c58bb19949da9ef584,64c7fed44a04f777bb1e18ce,64c8011c936f7e64ed969566,right,1,0.75,0.05,3,0.012530979,1.1646,14,0,14,0,1,,,,,,,,,,
,,821332,001,2023-07-31_20h47.00.307,arm3_eps,2022.2.5,Win32,59.84440455,6116b0c58bb19949da9ef584,64c7fed44a04f777bb1e18ce,64c8011c936f7e64ed969566,right,1,0.75,0.05,3,0.018455888,0.3802,15,0,15,0,1,,,,,,,,,,
,,821332,001,2023-07-31_20h47.00.307,arm3_eps,2022.2.5,Win32,59.84440455,6116b0c58bb19949da9ef584,64c7fed44a04f777bb1e18ce,64c8011c936f7e64ed969566,down,1,0.75,0.05,2,0,1.3752,16,0,16,0,1,,,,,,,,,,
,,821332,001,2023-07-31_20h47.00.307,arm3_eps,2022.2.5,Win32,59.84440455,6116b0c58bb19949da9ef584,64c7fed44a04f777bb1e18ce,64c8011c936f7e64ed969566,right,1,0.75,0.05,2,0.026449117,0.946,17,0,17,0,1,,,,,,,,,,
,,821332,001,2023-07-31_20h47.00.307,arm3_eps,2022.2.5,Win32,59.84440455,6116b0c58bb19949da9ef584,64c7fed44a04f777bb1e18ce,64c8011c936f7e64ed969566,right,1,0.75,0.05,2,0.034597405,0.4125,18,0,18,0,1,,,,,,,,,,
,,821332,001,2023-07-31_20h47.00.307,arm3_eps,2022.2.5,Win32,59.84440455,6116b0c58bb19949da9ef584,64c7fed44a04f777bb1e18ce,64c8011c936f7e64ed969566,up,1,0.75,0.05,3,0,0.4201,19,0,19,0,1,,,,,,,,,,
,,821332,001,2023-07-31_20h47.00.307,arm3_eps,2022.2.5,Win32,59.84440455,6116b0c58bb19949da9ef584,64c7fed44a04f777bb1e18ce,64c8011c936f7e64ed969566,right,1,0.75,0.05,3,0.003678071,1.532,20,0,20,0,1,,,,,,,,,,
,,821332,001,2023-07-31_20h47.00.307,arm3_eps,2022.2.5,Win32,59.84440455,6116b0c58bb19949da9ef584,64c7fed44a04f777bb1e18ce,64c8011c936f7e64ed969566,right,1,0.75,0.05,3,0.002732493,0.2777,21,0,21,0,1,,,,,,,,,,
,,821332,001,2023-07-31_20h47.00.307,arm3_eps,2022.2.5,Win32,59.84440455,6116b0c58bb19949da9ef584,64c7fed44a04f777bb1e18ce,64c8011c936f7e64ed969566,up,1,0.75,0.05,4,0,0.7964,22,0,22,0,1,,,,,,,,,,
,,821332,001,2023-07-31_20h47.00.307,arm3_eps,2022.2.5,Win32,59.84440455,6116b0c58bb19949da9ef584,64c7fed44a04f777bb1e18ce,64c8011c936f7e64ed969566,right,1,0.75,0.05,4,0.026599313,1.1202,23,0,23,0,1,,,,,,,,,,
,,821332,001,2023-07-31_20h47.00.307,arm3_eps,2022.2.5,Win32,59.84440455,6116b0c58bb19949da9ef584,64c7fed44a04f777bb1e18ce,64c8011c936f7e64ed969566,right,1,0.75,0.05,4,0.043960571,0.3486,24,0,24,0,1,,,,,,,,,,
,,821332,001,2023-07-31_20h47.00.307,arm3_eps,2022.2.5,Win32,59.84440455,6116b0c58bb19949da9ef584,64c7fed44a04f777bb1e18ce,64c8011c936f7e64ed969566,up,1,0.75,0.05,5,0,0.3499,25,0,25,0,1,,,,,,,,,,
,,821332,001,2023-07-31_20h47.00.307,arm3_eps,2022.2.5,Win32,59.84440455,6116b0c58bb19949da9ef584,64c7fed44a04f777bb1e18ce,64c8011c936f7e64ed969566,down,-1,0.75,0.05,4,0,1.5743,26,0,26,0,1,,,,,,,,,,
,,821332,001,2023-07-31_20h47.00.307,arm3_eps,2022.2.5,Win32,59.84440455,6116b0c58bb19949da9ef584,64c7fed44a04f777bb1e18ce,64c8011c936f7e64ed969566,right,-1,0.75,0.05,4,0.014490391,1.104,27,0,27,0,1,,,,,,,,,,
,,821332,001,2023-07-31_20h47.00.307,arm3_eps,2022.2.5,Win32,59.84440455,6116b0c58bb19949da9ef584,64c7fed44a04f777bb1e18ce,64c8011c936f7e64ed969566,right,-1,0.75,0.05,4,0.004285166,0.3315,28,0,28,0,1,,,,,,,,,,
,,821332,001,2023-07-31_20h47.00.307,arm3_eps,2022.2.5,Win32,59.84440455,6116b0c58bb19949da9ef584,64c7fed44a04f777bb1e18ce,64c8011c936f7e64ed969566,right,-1,0.75,0.05,4,-0.000352069,0.5824,29,0,29,0,1,,,,,,,,,,
,,821332,001,2023-07-31_20h47.00.307,arm3_eps,2022.2.5,Win32,59.84440455,6116b0c58bb19949da9ef584,64c7fed44a04f777bb1e18ce,64c8011c936f7e64ed969566,down,-1,0.75,0.05,5,0,0.8985,30,0,30,0,1,,,,,,,,,,
,,821332,001,2023-07-31_20h47.00.307,arm3_eps,2022.2.5,Win32,59.84440455,6116b0c58bb19949da9ef584,64c7fed44a04f777bb1e18ce,64c8011c936f7e64ed969566,right,-1,0.75,0.05,5,0.003783231,1.2991,31,0,31,0,1,,,,,,,,,,
,,821332,001,2023-07-31_20h47.00.307,arm3_eps,2022.2.5,Win32,59.84440455,6116b0c58bb19949da9ef584,64c7fed44a04f777bb1e18ce,64c8011c936f7e64ed969566,right,-1,0.75,0.05,5,0.010310504,0.2629,32,0,32,0,1,,,,,,,,,,
,,821332,001,2023-07-31_20h47.00.307,arm3_eps,2022.2.5,Win32,59.84440455,6116b0c58bb19949da9ef584,64c7fed44a04f777bb1e18ce,64c8011c936f7e64ed969566,right,-1,0.75,0.05,5,0.001274852,0.3285,33,0,33,0,1,,,,,,,,,,
,,821332,001,2023-07-31_20h47.00.307,arm3_eps,2022.2.5,Win32,59.84440455,6116b0c58bb19949da9ef584,64c7fed44a04f777bb1e18ce,64c8011c936f7e64ed969566,down,-1,0.75,0.05,6,0,0.7443,34,0,34,0,1,,,,,,,,,,
,,821332,001,2023-07-31_20h47.00.307,arm3_eps,2022.2.5,Win32,59.84440455,6116b0c58bb19949da9ef584,64c7fed44a04f777bb1e18ce,64c8011c936f7e64ed969566,right,-1,0.75,0.05,6,-0.015722055,1.2403,35,0,35,0,1,,,,,,,,,,
,,821332,001,2023-07-31_20h47.00.307,arm3_eps,2022.2.5,Win32,59.84440455,6116b0c58bb19949da9ef584,64c7fed44a04f777bb1e18ce,64c8011c936f7e64ed969566,right,-1,0.75,0.05,6,-0.015283861,0.3709,36,0,36,0,1,,,,,,,,,,
,,821332,001,2023-07-31_20h47.00.307,arm3_eps,2022.2.5,Win32,59.84440455,6116b0c58bb19949da9ef584,64c7fed44a04f777bb1e18ce,64c8011c936f7e64ed969566,down,-1,0.75,0.05,6,0,0.6433,37,0,37,0,1,,,,,,,,,,
,,821332,001,2023-07-31_20h47.00.307,arm3_eps,2022.2.5,Win32,59.84440455,6116b0c58bb19949da9ef584,64c7fed44a04f777bb1e18ce,64c8011c936f7e64ed969566,right,-1,0.75,0.05,6,-0.032447318,1.5211,38,0,38,0,1,,,,,,,,,,
,,821332,001,2023-07-31_20h47.00.307,arm3_eps,2022.2.5,Win32,59.84440455,6116b0c58bb19949da9ef584,64c7fed44a04f777bb1e18ce,64c8011c936f7e64ed969566,right,-1,0.75,0.05,6,-0.086820294,0.3413,39,0,39,0,1,,,,,,,,,,
,,821332,001,2023-07-31_20h47.00.307,arm3_eps,2022.2.5,Win32,59.84440455,6116b0c58bb19949da9ef584,64c7fed44a04f777bb1e18ce,64c8011c936f7e64ed969566,down,-1,0.75,0.05,7,0,0.4847,40,0,40,0,1,,,,,,,,,,
,,821332,001,2023-07-31_20h47.00.307,arm3_eps,2022.2.5,Win32,59.84440455,6116b0c58bb19949da9ef584,64c7fed44a04f777bb1e18ce,64c8011c936f7e64ed969566,right,-1,0.75,0.05,7,-0.021103812,1.1556,41,0,41,0,1,,,,,,,,,,
,,821332,001,2023-07-31_20h47.00.307,arm3_eps,2022.2.5,Win32,59.84440455,6116b0c58bb19949da9ef584,64c7fed44a04f777bb1e18ce,64c8011c936f7e64ed969566,right,-1,0.75,0.05,7,-0.05574597,0.3201,42,0,42,0,1,,,,,,,,,,
,,821332,001,2023-07-31_20h47.00.307,arm3_eps,2022.2.5,Win32,59.84440455,6116b0c58bb19949da9ef584,64c7fed44a04f777bb1e18ce,64c8011c936f7e64ed969566,down,-1,0.75,0.05,7,0,0.437,43,0,43,0,1,,,,,,,,,,
,,821332,001,2023-07-31_20h47.00.307,arm3_eps,2022.2.5,Win32,59.84440455,6116b0c58bb19949da9ef584,64c7fed44a04f777bb1e18ce,64c8011c936f7e64ed969566,right,-1,0.75,0.05,7,-0.008203158,1.2924,44,0,44,0,1,,,,,,,,,,
,,821332,001,2023-07-31_20h47.00.307,arm3_eps,2022.2.5,Win32,59.84440455,6116b0c58bb19949da9ef584,64c7fed44a04f777bb1e18ce,64c8011c936f7e64ed969566,right,-1,0.75,0.05,7,-0.028267102,0.291,45,0,45,0,1,,,,,,,,,,
,,821332,001,2023-07-31_20h47.00.307,arm3_eps,2022.2.5,Win32,59.84440455,6116b0c58bb19949da9ef584,64c7fed44a04f777bb1e18ce,64c8011c936f7e64ed969566,right,-1,0.75,0.05,7,-0.043406236,0.3545,46,0,46,0,1,,,,,,,,,,
,,821332,001,2023-07-31_20h47.00.307,arm3_eps,2022.2.5,Win32,59.84440455,6116b0c58bb19949da9ef584,64c7fed44a04f777bb1e18ce,64c8011c936f7e64ed969566,down,-1,0.75,0.05,7,0,0.3176,47,0,47,0,1,,,,,,,,,,
,,821332,001,2023-07-31_20h47.00.307,arm3_eps,2022.2.5,Win32,59.84440455,6116b0c58bb19949da9ef584,64c7fed44a04f777bb1e18ce,64c8011c936f7e64ed969566,right,-1,0.75,0.05,7,0.002863509,1.2568,48,0,48,0,1,,,,,,,,,,
,,821332,001,2023-07-31_20h47.00.307,arm3_eps,2022.2.5,Win32,59.84440455,6116b0c58bb19949da9ef584,64c7fed44a04f777bb1e18ce,64c8011c936f7e64ed969566,right,-1,0.75,0.05,7,-0.002109654,0.3821,49,0,49,0,1,,,,,,,,,,
space,21.2214,821332,001,2023-07-31_20h47.00.307,arm3_eps,2022.2.5,Win32,59.84440455,6116b0c58bb19949da9ef584,64c7fed44a04f777bb1e18ce,64c8011c936f7e64ed969566,,,,,,,,,,,,,,,,,,,,,,
space,2.5663,821332,001,2023-07-31_20h47.00.307,arm3_eps,2022.2.5,Win32,59.84440455,6116b0c58bb19949da9ef584,64c7fed44a04f777bb1e18ce,64c8011c936f7e64ed969566,,,,,,,,,,,,,,,,,,,,,,
,,821332,001,2023-07-31_20h47.00.307,arm3_eps,2022.2.5,Win32,59.84440455,6116b0c58bb19949da9ef584,64c7fed44a04f777bb1e18ce,64c8011c936f7e64ed969566,right,-1,0.75,0.5,0,-0.003848491,0.773,0,0,0,0,1,,,,,,,,,,
,,821332,001,2023-07-31_20h47.00.307,arm3_eps,2022.2.5,Win32,59.84440455,6116b0c58bb19949da9ef584,64c7fed44a04f777bb1e18ce,64c8011c936f7e64ed969566,right,-1,0.75,0.5,0,-0.017006764,0.3016,1,0,1,0,1,,,,,,,,,,
,,821332,001,2023-07-31_20h47.00.307,arm3_eps,2022.2.5,Win32,59.84440455,6116b0c58bb19949da9ef584,64c7fed44a04f777bb1e18ce,64c8011c936f7e64ed969566,right,-1,0.75,0.5,0,-0.021989176,0.8807,2,0,2,0,1,,,,,,,,,,
,,821332,001,2023-07-31_20h47.00.307,arm3_eps,2022.2.5,Win32,59.84440455,6116b0c58bb19949da9ef584,64c7fed44a04f777bb1e18ce,64c8011c936f7e64ed969566,down,-1,0.75,0.5,1,0,0.6133,3,0,3,0,1,,,,,,,,,,
,,821332,001,2023-07-31_20h47.00.307,arm3_eps,2022.2.5,Win32,59.84440455,6116b0c58bb19949da9ef584,64c7fed44a04f777bb1e18ce,64c8011c936f7e64ed969566,right,-1,0.75,0.5,1,0.003017463,1.162,4,0,4,0,1,,,,,,,,,,
,,821332,001,2023-07-31_20h47.00.307,arm3_eps,2022.2.5,Win32,59.84440455,6116b0c58bb19949da9ef584,64c7fed44a04f777bb1e18ce,64c8011c936f7e64ed969566,down,1,0.75,0.5,1,0,0.4707,5,0,5,0,1,,,,,,,,,,
,,821332,001,2023-07-31_20h47.00.307,arm3_eps,2022.2.5,Win32,59.84440455,6116b0c58bb19949da9ef584,64c7fed44a04f777bb1e18ce,64c8011c936f7e64ed969566,down,1,0.75,0.5,0,0,1.208,6,0,6,0,1,,,,,,,,,,
,,821332,001,2023-07-31_20h47.00.307,arm3_eps,2022.2.5,Win32,59.84440455,6116b0c58bb19949da9ef584,64c7fed44a04f777bb1e18ce,64c8011c936f7e64ed969566,right,1,0.75,0.5,0,-0.009688255,1.142,7,0,7,0,1,,,,,,,,,,
,,821332,001,2023-07-31_20h47.00.307,arm3_eps,2022.2.5,Win32,59.84440455,6116b0c58bb19949da9ef584,64c7fed44a04f777bb1e18ce,64c8011c936f7e64ed969566,right,1,0.75,0.5,0,-0.015886034,0.215,8,0,8,0,1,,,,,,,,,,
,,821332,001,2023-07-31_20h47.00.307,arm3_eps,2022.2.5,Win32,59.84440455,6116b0c58bb19949da9ef584,64c7fed44a04f777bb1e18ce,64c8011c936f7e64ed969566,down,-1,0.75,0.5,0,0,0.4675,9,0,9,0,1,,,,,,,,,,
,,821332,001,2023-07-31_20h47.00.307,arm3_eps,2022.2.5,Win32,59.84440455,6116b0c58bb19949da9ef584,64c7fed44a04f777bb1e18ce,64c8011c936f7e64ed969566,right,-1,0.75,0.5,0,-0.012162504,1.2983,10,0,10,0,1,,,,,,,,,,
,,821332,001,2023-07-31_20h47.00.307,arm3_eps,2022.2.5,Win32,59.84440455,6116b0c58bb19949da9ef584,64c7fed44a04f777bb1e18ce,64c8011c936f7e64ed969566,right,-1,0.75,0.5,0,-0.004020639,0.792,11,0,11,0,1,,,,,,,,,,
,,821332,001,2023-07-31_20h47.00.307,arm3_eps,2022.2.5,Win32,59.84440455,6116b0c58bb19949da9ef584,64c7fed44a04f777bb1e18ce,64c8011c936f7e64ed969566,down,-1,0.75,0.5,1,0,0.6176,12,0,12,0,1,,,,,,,,,,
,,821332,001,2023-07-31_20h47.00.307,arm3_eps,2022.2.5,Win32,59.84440455,6116b0c58bb19949da9ef584,64c7fed44a04f777bb1e18ce,64c8011c936f7e64ed969566,right,-1,0.75,0.5,1,-0.020155436,0.9947,13,0,13,0,1,,,,,,,,,,
,,821332,001,2023-07-31_20h47.00.307,arm3_eps,2022.2.5,Win32,59.84440455,6116b0c58bb19949da9ef584,64c7fed44a04f777bb1e18ce,64c8011c936f7e64ed969566,right,-1,0.75,0.5,1,-0.014496716,0.2606,14,0,14,0,1,,,,,,,,,,
,,821332,001,2023-07-31_20h47.00.307,arm3_eps,2022.2.5,Win32,59.84440455,6116b0c58bb19949da9ef584,64c7fed44a04f777bb1e18ce,64c8011c936f7e64ed969566,down,1,0.75,0.5,2,0,0.3358,15,0,15,0,1,,,,,,,,,,
,,821332,001,2023-07-31_20h47.00.307,arm3_eps,2022.2.5,Win32,59.84440455,6116b0c58bb19949da9ef584,64c7fed44a04f777bb1e18ce,64c8011c936f7e64ed969566,right,1,0.75,0.5,2,0.009341249,1.0322,16,0,16,0,1,,,,,,,,,,
,,821332,001,2023-07-31_20h47.00.307,arm3_eps,2022.2.5,Win32,59.84440455,6116b0c58bb19949da9ef584,64c7fed44a04f777bb1e18ce,64c8011c936f7e64ed969566,up,-1,0.75,0.5,2,0,0.9651,17,0,17,0,1,,,,,,,,,,
,,821332,001,2023-07-31_20h47.00.307,arm3_eps,2022.2.5,Win32,59.84440455,6116b0c58bb19949da9ef584,64c7fed44a04f777bb1e18ce,64c8011c936f7e64ed969566,right,-1,0.75,0.5,2,-0.000733408,1.1794,18,0,18,0,1,,,,,,,,,,
,,821332,001,2023-07-31_20h47.00.307,arm3_eps,2022.2.5,Win32,59.84440455,6116b0c58bb19949da9ef584,64c7fed44a04f777bb1e18ce,64c8011c936f7e64ed969566,right,-1,0.75,0.5,2,0.002451684,0.2116,19,0,19,0,1,,,,,,,,,,
,,821332,001,2023-07-31_20h47.00.307,arm3_eps,2022.2.5,Win32,59.84440455,6116b0c58bb19949da9ef584,64c7fed44a04f777bb1e18ce,64c8011c936f7e64ed969566,right,-1,0.75,0.5,2,-0.005826268,0.318,20,0,20,0,1,,,,,,,,,,
,,821332,001,2023-07-31_20h47.00.307,arm3_eps,2022.2.5,Win32,59.84440455,6116b0c58bb19949da9ef584,64c7fed44a04f777bb1e18ce,64c8011c936f7e64ed969566,down,-1,0.75,0.5,3,0,0.5034,21,0,21,0,1,,,,,,,,,,
,,821332,001,2023-07-31_20h47.00.307,arm3_eps,2022.2.5,Win32,59.84440455,6116b0c58bb19949da9ef584,64c7fed44a04f777bb1e18ce,64c8011c936f7e64ed969566,right,-1,0.75,0.5,3,0.002085325,0.9174,22,0,22,0,1,,,,,,,,,,
,,821332,001,2023-07-31_20h47.00.307,arm3_eps,2022.2.5,Win32,59.84440455,6116b0c58bb19949da9ef584,64c7fed44a04f777bb1e18ce,64c8011c936f7e64ed969566,right,-1,0.75,0.5,3,0.005468582,0.3129,23,0,23,0,1,,,,,,,,,,
,,821332,001,2023-07-31_20h47.00.307,arm3_eps,2022.2.5,Win32,59.84440455,6116b0c58bb19949da9ef584,64c7fed44a04f777bb1e18ce,64c8011c936f7e64ed969566,right,-1,0.75,0.5,3,-0.006241892,0.3238,24,0,24,0,1,,,,,,,,,,
,,821332,001,2023-07-31_20h47.00.307,arm3_eps,2022.2.5,Win32,59.84440455,6116b0c58bb19949da9ef584,64c7fed44a04f777bb1e18ce,64c8011c936f7e64ed969566,up,-1,0.75,0.5,2,0,0.7982,25,0,25,0,1,,,,,,,,,,
,,821332,001,2023-07-31_20h47.00.307,arm3_eps,2022.2.5,Win32,59.84440455,6116b0c58bb19949da9ef584,64c7fed44a04f777bb1e18ce,64c8011c936f7e64ed969566,right,-1,0.75,0.5,2,-0.008125836,0.8948,26,0,26,0,1,,,,,,,,,,
,,821332,001,2023-07-31_20h47.00.307,arm3_eps,2022.2.5,Win32,59.84440455,6116b0c58bb19949da9ef584,64c7fed44a04f777bb1e18ce,64c8011c936f7e64ed969566,right,-1,0.75,0.5,2,-0.001178727,0.2663,27,0,27,0,1,,,,,,,,,,
,,821332,001,2023-07-31_20h47.00.307,arm3_eps,2022.2.5,Win32,59.84440455,6116b0c58bb19949da9ef584,64c7fed44a04f777bb1e18ce,64c8011c936f7e64ed969566,right,-1,0.75,0.5,2,-0.013769982,0.3667,28,0,28,0,1,,,,,,,,,,
,,821332,001,2023-07-31_20h47.00.307,arm3_eps,2022.2.5,Win32,59.84440455,6116b0c58bb19949da9ef584,64c7fed44a04f777bb1e18ce,64c8011c936f7e64ed969566,down,1,0.75,0.5,3,0,0.5027,29,0,29,0,1,,,,,,,,,,
,,821332,001,2023-07-31_20h47.00.307,arm3_eps,2022.2.5,Win32,59.84440455,6116b0c58bb19949da9ef584,64c7fed44a04f777bb1e18ce,64c8011c936f7e64ed969566,right,1,0.75,0.5,3,-0.011615068,0.9958,30,0,30,0,1,,,,,,,,,,
,,821332,001,2023-07-31_20h47.00.307,arm3_eps,2022.2.5,Win32,59.84440455,6116b0c58bb19949da9ef584,64c7fed44a04f777bb1e18ce,64c8011c936f7e64ed969566,right,1,0.75,0.5,3,-0.030916291,0.2478,31,0,31,0,1,,,,,,,,,,
,,821332,001,2023-07-31_20h47.00.307,arm3_eps,2022.2.5,Win32,59.84440455,6116b0c58bb19949da9ef584,64c7fed44a04f777bb1e18ce,64c8011c936f7e64ed969566,right,1,0.75,0.5,3,-0.004351652,0.74,32,0,32,0,1,,,,,,,,,,
,,821332,001,2023-07-31_20h47.00.307,arm3_eps,2022.2.5,Win32,59.84440455,6116b0c58bb19949da9ef584,64c7fed44a04f777bb1e18ce,64c8011c936f7e64ed969566,up,-1,0.75,0.5,4,0,0.9851,33,0,33,0,1,,,,,,,,,,
,,821332,001,2023-07-31_20h47.00.307,arm3_eps,2022.2.5,Win32,59.84440455,6116b0c58bb19949da9ef584,64c7fed44a04f777bb1e18ce,64c8011c936f7e64ed969566,right,-1,0.75,0.5,4,-0.012788993,1.1415,34,0,34,0,1,,,,,,,,,,
,,821332,001,2023-07-31_20h47.00.307,arm3_eps,2022.2.5,Win32,59.84440455,6116b0c58bb19949da9ef584,64c7fed44a04f777bb1e18ce,64c8011c936f7e64ed969566,right,-1,0.75,0.5,4,-0.039956557,0.1926,35,0,35,0,1,,,,,,,,,,
,,821332,001,2023-07-31_20h47.00.307,arm3_eps,2022.2.5,Win32,59.84440455,6116b0c58bb19949da9ef584,64c7fed44a04f777bb1e18ce,64c8011c936f7e64ed969566,down,-1,0.75,0.5,5,0,0.4715,36,0,36,0,1,,,,,,,,,,
,,821332,001,2023-07-31_20h47.00.307,arm3_eps,2022.2.5,Win32,59.84440455,6116b0c58bb19949da9ef584,64c7fed44a04f777bb1e18ce,64c8011c936f7e64ed969566,up,1,0.75,0.5,4,0,1.864,37,0,37,0,1,,,,,,,,,,
,,821332,001,2023-07-31_20h47.00.307,arm3_eps,2022.2.5,Win32,59.84440455,6116b0c58bb19949da9ef584,64c7fed44a04f777bb1e18ce,64c8011c936f7e64ed969566,right,1,0.75,0.5,4,0.032411808,1.0156,38,0,38,0,1,,,,,,,,,,
,,821332,001,2023-07-31_20h47.00.307,arm3_eps,2022.2.5,Win32,59.84440455,6116b0c58bb19949da9ef584,64c7fed44a04f777bb1e18ce,64c8011c936f7e64ed969566,right,1,0.75,0.5,4,0.01719877,0.2228,39,0,39,0,1,,,,,,,,,,
,,821332,001,2023-07-31_20h47.00.307,arm3_eps,2022.2.5,Win32,59.84440455,6116b0c58bb19949da9ef584,64c7fed44a04f777bb1e18ce,64c8011c936f7e64ed969566,right,1,0.75,0.5,4,0.003096171,0.7762,40,0,40,0,1,,,,,,,,,,
,,821332,001,2023-07-31_20h47.00.307,arm3_eps,2022.2.5,Win32,59.84440455,6116b0c58bb19949da9ef584,64c7fed44a04f777bb1e18ce,64c8011c936f7e64ed969566,up,-1,0.75,0.5,5,0,0.843,41,0,41,0,1,,,,,,,,,,
,,821332,001,2023-07-31_20h47.00.307,arm3_eps,2022.2.5,Win32,59.84440455,6116b0c58bb19949da9ef584,64c7fed44a04f777bb1e18ce,64c8011c936f7e64ed969566,right,-1,0.75,0.5,5,0.023171496,1.132,42,0,42,0,1,,,,,,,,,,
,,821332,001,2023-07-31_20h47.00.307,arm3_eps,2022.2.5,Win32,59.84440455,6116b0c58bb19949da9ef584,64c7fed44a04f777bb1e18ce,64c8011c936f7e64ed969566,right,-1,0.75,0.5,5,0.029641889,0.2323,43,0,43,0,1,,,,,,,,,,
,,821332,001,2023-07-31_20h47.00.307,arm3_eps,2022.2.5,Win32,59.84440455,6116b0c58bb19949da9ef584,64c7fed44a04f777bb1e18ce,64c8011c936f7e64ed969566,up,1,0.75,0.5,4,0,0.4154,44,0,44,0,1,,,,,,,,,,
,,821332,001,2023-07-31_20h47.00.307,arm3_eps,2022.2.5,Win32,59.84440455,6116b0c58bb19949da9ef584,64c7fed44a04f777bb1e18ce,64c8011c936f7e64ed969566,right,1,0.75,0.5,4,0.013372643,1.1714,45,0,45,0,1,,,,,,,,,,
,,821332,001,2023-07-31_20h47.00.307,arm3_eps,2022.2.5,Win32,59.84440455,6116b0c58bb19949da9ef584,64c7fed44a04f777bb1e18ce,64c8011c936f7e64ed969566,right,1,0.75,0.5,4,0.038064385,0.2495,46,0,46,0,1,,,,,,,,,,
,,821332,001,2023-07-31_20h47.00.307,arm3_eps,2022.2.5,Win32,59.84440455,6116b0c58bb19949da9ef584,64c7fed44a04f777bb1e18ce,64c8011c936f7e64ed969566,up,1,0.75,0.5,5,0,0.6363,47,0,47,0,1,,,,,,,,,,
,,821332,001,2023-07-31_20h47.00.307,arm3_eps,2022.2.5,Win32,59.84440455,6116b0c58bb19949da9ef584,64c7fed44a04f777bb1e18ce,64c8011c936f7e64ed969566,right,1,0.75,0.5,5,0.036054308,1.093,48,0,48,0,1,,,,,,,,,,
,,821332,001,2023-07-31_20h47.00.307,arm3_eps,2022.2.5,Win32,59.84440455,6116b0c58bb19949da9ef584,64c7fed44a04f777bb1e18ce,64c8011c936f7e64ed969566,right,1,0.75,0.5,5,0.043629558,0.3393,49,0,49,0,1,,,,,,,,,,
space,1.9908,821332,001,2023-07-31_20h47.00.307,arm3_eps,2022.2.5,Win32,59.84440455,6116b0c58bb19949da9ef584,64c7fed44a04f777bb1e18ce,64c8011c936f7e64ed969566,,,,,,,,,,,,,,,,,,,,,,
space,4.256,821332,001,2023-07-31_20h47.00.307,arm3_eps,2022.2.5,Win32,59.84440455,6116b0c58bb19949da9ef584,64c7fed44a04f777bb1e18ce,64c8011c936f7e64ed969566,up,-1,0.75,0.3714,1,0,0.6044,,,,,,0,0,0,0,1,,,,,
,,821332,001,2023-07-31_20h47.00.307,arm3_eps,2022.2.5,Win32,59.84440455,6116b0c58bb19949da9ef584,64c7fed44a04f777bb1e18ce,64c8011c936f7e64ed969566,right,-1,0.75,0.3714,1,0.01719953,1.223,,,,,,1,0,1,0,1,,,,,
,,821332,001,2023-07-31_20h47.00.307,arm3_eps,2022.2.5,Win32,59.84440455,6116b0c58bb19949da9ef584,64c7fed44a04f777bb1e18ce,64c8011c936f7e64ed969566,right,-1,0.75,0.3714,1,0.001297846,0.3329,,,,,,2,0,2,0,1,,,,,
,,821332,001,2023-07-31_20h47.00.307,arm3_eps,2022.2.5,Win32,59.84440455,6116b0c58bb19949da9ef584,64c7fed44a04f777bb1e18ce,64c8011c936f7e64ed969566,right,-1,0.75,0.3714,1,0.003341614,0.4283,,,,,,3,0,3,0,1,,,,,
,,821332,001,2023-07-31_20h47.00.307,arm3_eps,2022.2.5,Win32,59.84440455,6116b0c58bb19949da9ef584,64c7fed44a04f777bb1e18ce,64c8011c936f7e64ed969566,up,-1,0.75,0.3714,0,0,0.7286,,,,,,4,0,4,0,1,,,,,
,,821332,001,2023-07-31_20h47.00.307,arm3_eps,2022.2.5,Win32,59.84440455,6116b0c58bb19949da9ef584,64c7fed44a04f777bb1e18ce,64c8011c936f7e64ed969566,right,-1,0.75,0.3714,0,0.03406606,0.8893,,,,,,5,0,5,0,1,,,,,
,,821332,001,2023-07-31_20h47.00.307,arm3_eps,2022.2.5,Win32,59.84440455,6116b0c58bb19949da9ef584,64c7fed44a04f777bb1e18ce,64c8011c936f7e64ed969566,right,-1,0.75,0.3714,0,0.018590384,0.4149,,,,,,6,0,6,0,1,,,,,
,,821332,001,2023-07-31_20h47.00.307,arm3_eps,2022.2.5,Win32,59.84440455,6116b0c58bb19949da9ef584,64c7fed44a04f777bb1e18ce,64c8011c936f7e64ed969566,up,-1,0.75,0.3714,-1,0,0.6298,,,,,,7,0,7,0,1,,,,,
,,821332,001,2023-07-31_20h47.00.307,arm3_eps,2022.2.5,Win32,59.84440455,6116b0c58bb19949da9ef584,64c7fed44a04f777bb1e18ce,64c8011c936f7e64ed969566,right,-1,0.75,0.3714,-1,0.020135078,0.797,,,,,,8,0,8,0,1,,,,,
,,821332,001,2023-07-31_20h47.00.307,arm3_eps,2022.2.5,Win32,59.84440455,6116b0c58bb19949da9ef584,64c7fed44a04f777bb1e18ce,64c8011c936f7e64ed969566,right,-1,0.75,0.3714,-1,0.036046455,0.3477,,,,,,9,0,9,0,1,,,,,
,,821332,001,2023-07-31_20h47.00.307,arm3_eps,2022.2.5,Win32,59.84440455,6116b0c58bb19949da9ef584,64c7fed44a04f777bb1e18ce,64c8011c936f7e64ed969566,right,-1,0.75,0.3714,-1,0.031588579,0.3001,,,,,,10,0,10,0,1,,,,,
,,821332,001,2023-07-31_20h47.00.307,arm3_eps,2022.2.5,Win32,59.84440455,6116b0c58bb19949da9ef584,64c7fed44a04f777bb1e18ce,64c8011c936f7e64ed969566,down,-1,0.75,0.3714,0,0,0.6345,,,,,,11,0,11,0,1,,,,,
,,821332,001,2023-07-31_20h47.00.307,arm3_eps,2022.2.5,Win32,59.84440455,6116b0c58bb19949da9ef584,64c7fed44a04f777bb1e18ce,64c8011c936f7e64ed969566,right,-1,0.75,0.3714,0,-0.009935134,1.0046,,,,,,12,0,12,0,1,,,,,
,,821332,001,2023-07-31_20h47.00.307,arm3_eps,2022.2.5,Win32,59.84440455,6116b0c58bb19949da9ef584,64c7fed44a04f777bb1e18ce,64c8011c936f7e64ed969566,right,-1,0.75,0.3714,0,-0.007150607,0.2944,,,,,,13,0,13,0,1,,,,,
,,821332,001,2023-07-31_20h47.00.307,arm3_eps,2022.2.5,Win32,59.84440455,6116b0c58bb19949da9ef584,64c7fed44a04f777bb1e18ce,64c8011c936f7e64ed969566,right,-1,0.75,0.3714,0,-0.007190443,0.2934,,,,,,14,0,14,0,1,,,,,
,,821332,001,2023-07-31_20h47.00.307,arm3_eps,2022.2.5,Win32,59.84440455,6116b0c58bb19949da9ef584,64c7fed44a04f777bb1e18ce,64c8011c936f7e64ed969566,down,1,0.75,0.3714,1,0,0.6117,,,,,,15,0,15,0,1,,,,,
,,821332,001,2023-07-31_20h47.00.307,arm3_eps,2022.2.5,Win32,59.84440455,6116b0c58bb19949da9ef584,64c7fed44a04f777bb1e18ce,64c8011c936f7e64ed969566,right,1,0.75,0.3714,1,0.024360655,1.0176,,,,,,16,0,16,0,1,,,,,
,,821332,001,2023-07-31_20h47.00.307,arm3_eps,2022.2.5,Win32,59.84440455,6116b0c58bb19949da9ef584,64c7fed44a04f777bb1e18ce,64c8011c936f7e64ed969566,right,1,0.75,0.3714,1,-0.008575967,0.2452,,,,,,17,0,17,0,1,,,,,
,,821332,001,2023-07-31_20h47.00.307,arm3_eps,2022.2.5,Win32,59.84440455,6116b0c58bb19949da9ef584,64c7fed44a04f777bb1e18ce,64c8011c936f7e64ed969566,down,-1,0.75,0.3714,1,0,0.6836,,,,,,18,0,18,0,1,,,,,
,,821332,001,2023-07-31_20h47.00.307,arm3_eps,2022.2.5,Win32,59.84440455,6116b0c58bb19949da9ef584,64c7fed44a04f777bb1e18ce,64c8011c936f7e64ed969566,right,-1,0.75,0.3714,1,0.025767649,0.8349,,,,,,19,0,19,0,1,,,,,
,,821332,001,2023-07-31_20h47.00.307,arm3_eps,2022.2.5,Win32,59.84440455,6116b0c58bb19949da9ef584,64c7fed44a04f777bb1e18ce,64c8011c936f7e64ed969566,right,-1,0.75,0.3714,1,-0.004707753,0.3495,,,,,,20,0,20,0,1,,,,,
,,821332,001,2023-07-31_20h47.00.307,arm3_eps,2022.2.5,Win32,59.84440455,6116b0c58bb19949da9ef584,64c7fed44a04f777bb1e18ce,64c8011c936f7e64ed969566,right,-1,0.75,0.3714,1,0.003563092,0.5545,,,,,,21,0,21,0,1,,,,,
,,821332,001,2023-07-31_20h47.00.307,arm3_eps,2022.2.5,Win32,59.84440455,6116b0c58bb19949da9ef584,64c7fed44a04f777bb1e18ce,64c8011c936f7e64ed969566,right,-1,0.75,0.3714,1,-0.007477359,0.9895,,,,,,22,0,22,0,1,,,,,
,,821332,001,2023-07-31_20h47.00.307,arm3_eps,2022.2.5,Win32,59.84440455,6116b0c58bb19949da9ef584,64c7fed44a04f777bb1e18ce,64c8011c936f7e64ed969566,right,-1,0.75,0.3714,1,-0.029500115,0.2018,,,,,,23,0,23,0,1,,,,,
,,821332,001,2023-07-31_20h47.00.307,arm3_eps,2022.2.5,Win32,59.84440455,6116b0c58bb19949da9ef584,64c7fed44a04f777bb1e18ce,64c8011c936f7e64ed969566,down,-1,0.75,0.3714,2,0,0.5602,,,,,,24,0,24,0,1,,,,,
,,821332,001,2023-07-31_20h47.00.307,arm3_eps,2022.2.5,Win32,59.84440455,6116b0c58bb19949da9ef584,64c7fed44a04f777bb1e18ce,64c8011c936f7e64ed969566,right,-1,0.75,0.3714,2,0.012192472,1.3151,,,,,,25,0,25,0,1,,,,,
,,821332,001,2023-07-31_20h47.00.307,arm3_eps,2022.2.5,Win32,59.84440455,6116b0c58bb19949da9ef584,64c7fed44a04f777bb1e18ce,64c8011c936f7e64ed969566,right,-1,0.75,0.3714,2,0.010273819,0.2216,,,,,,26,0,26,0,1,,,,,
,,821332,001,2023-07-31_20h47.00.307,arm3_eps,2022.2.5,Win32,59.84440455,6116b0c58bb19949da9ef584,64c7fed44a04f777bb1e18ce,64c8011c936f7e64ed969566,right,-1,0.75,0.3714,2,0.018751054,0.3303,,,,,,27,0,27,0,1,,,,,
,,821332,001,2023-07-31_20h47.00.307,arm3_eps,2022.2.5,Win32,59.84440455,6116b0c58bb19949da9ef584,64c7fed44a04f777bb1e18ce,64c8011c936f7e64ed969566,up,-1,0.75,0.3714,2,0,0.5009,,,,,,28,0,28,0,1,,,,,
,,821332,001,2023-07-31_20h47.00.307,arm3_eps,2022.2.5,Win32,59.84440455,6116b0c58bb19949da9ef584,64c7fed44a04f777bb1e18ce,64c8011c936f7e64ed969566,right,-1,0.75,0.3714,2,-0.020539768,1.0474,,,,,,29,0,29,0,1,,,,,
,,821332,001,2023-07-31_20h47.00.307,arm3_eps,2022.2.5,Win32,59.84440455,6116b0c58bb19949da9ef584,64c7fed44a04f777bb1e18ce,64c8011c936f7e64ed969566,right,-1,0.75,0.3714,2,-0.069440411,0.2502,,,,,,30,0,30,0,1,,,,,
,,821332,001,2023-07-31_20h47.00.307,arm3_eps,2022.2.5,Win32,59.84440455,6116b0c58bb19949da9ef584,64c7fed44a04f777bb1e18ce,64c8011c936f7e64ed969566,down,-1,0.75,0.3714,2,0,0.5019,,,,,,31,0,31,0,1,,,,,
,,821332,001,2023-07-31_20h47.00.307,arm3_eps,2022.2.5,Win32,59.84440455,6116b0c58bb19949da9ef584,64c7fed44a04f777bb1e18ce,64c8011c936f7e64ed969566,down,-1,0.75,0.3714,3,0,1.1973,,,,,,32,0,32,0,1,,,,,
,,821332,001,2023-07-31_20h47.00.307,arm3_eps,2022.2.5,Win32,59.84440455,6116b0c58bb19949da9ef584,64c7fed44a04f777bb1e18ce,64c8011c936f7e64ed969566,right,-1,0.75,0.3714,3,-0.030688341,1.0935,,,,,,33,0,33,0,1,,,,,
,,821332,001,2023-07-31_20h47.00.307,arm3_eps,2022.2.5,Win32,59.84440455,6116b0c58bb19949da9ef584,64c7fed44a04f777bb1e18ce,64c8011c936f7e64ed969566,right,-1,0.75,0.3714,3,-0.013518657,0.4098,,,,,,34,0,34,0,1,,,,,
,,821332,001,2023-07-31_20h47.00.307,arm3_eps,2022.2.5,Win32,59.84440455,6116b0c58bb19949da9ef584,64c7fed44a04f777bb1e18ce,64c8011c936f7e64ed969566,down,-1,0.75,0.3714,4,0,0.6007,,,,,,35,0,35,0,1,,,,,
,,821332,001,2023-07-31_20h47.00.307,arm3_eps,2022.2.5,Win32,59.84440455,6116b0c58bb19949da9ef584,64c7fed44a04f777bb1e18ce,64c8011c936f7e64ed969566,right,-1,0.75,0.3714,4,-0.001269201,1.0744,,,,,,36,0,36,0,1,,,,,
,,821332,001,2023-07-31_20h47.00.307,arm3_eps,2022.2.5,Win32,59.84440455,6116b0c58bb19949da9ef584,64c7fed44a04f777bb1e18ce,64c8011c936f7e64ed969566,right,-1,0.75,0.3714,4,-0.026147152,0.3486,,,,,,37,0,37,0,1,,,,,
,,821332,001,2023-07-31_20h47.00.307,arm3_eps,2022.2.5,Win32,59.84440455,6116b0c58bb19949da9ef584,64c7fed44a04f777bb1e18ce,64c8011c936f7e64ed969566,down,-1,0.75,0.3714,5,0,0.5786,,,,,,38,0,38,0,1,,,,,
,,821332,001,2023-07-31_20h47.00.307,arm3_eps,2022.2.5,Win32,59.84440455,6116b0c58bb19949da9ef584,64c7fed44a04f777bb1e18ce,64c8011c936f7e64ed969566,right,-1,0.75,0.3714,5,-0.037104523,0.8399,,,,,,39,0,39,0,1,,,,,
,,821332,001,2023-07-31_20h47.00.307,arm3_eps,2022.2.5,Win32,59.84440455,6116b0c58bb19949da9ef584,64c7fed44a04f777bb1e18ce,64c8011c936f7e64ed969566,down,-1,0.75,0.3714,5,0,0.6775,,,,,,40,0,40,0,1,,,,,
,,821332,001,2023-07-31_20h47.00.307,arm3_eps,2022.2.5,Win32,59.84440455,6116b0c58bb19949da9ef584,64c7fed44a04f777bb1e18ce,64c8011c936f7e64ed969566,right,-1,0.75,0.3714,5,-0.010322078,1.1204,,,,,,41,0,41,0,1,,,,,
,,821332,001,2023-07-31_20h47.00.307,arm3_eps,2022.2.5,Win32,59.84440455,6116b0c58bb19949da9ef584,64c7fed44a04f777bb1e18ce,64c8011c936f7e64ed969566,right,-1,0.75,0.3714,5,0.014591826,0.0145,,,,,,42,0,42,0,1,,,,,
,,821332,001,2023-07-31_20h47.00.307,arm3_eps,2022.2.5,Win32,59.84440455,6116b0c58bb19949da9ef584,64c7fed44a04f777bb1e18ce,64c8011c936f7e64ed969566,right,-1,0.75,0.3714,5,0.009021262,0.3019,,,,,,43,0,43,0,1,,,,,
,,821332,001,2023-07-31_20h47.00.307,arm3_eps,2022.2.5,Win32,59.84440455,6116b0c58bb19949da9ef584,64c7fed44a04f777bb1e18ce,64c8011c936f7e64ed969566,right,-1,0.75,0.3714,5,-0.010234699,0.4861,,,,,,44,0,44,0,1,,,,,
,,821332,001,2023-07-31_20h47.00.307,arm3_eps,2022.2.5,Win32,59.84440455,6116b0c58bb19949da9ef584,64c7fed44a04f777bb1e18ce,64c8011c936f7e64ed969566,down,-1,0.75,0.3714,6,0,0.4042,,,,,,45,0,45,0,1,,,,,
,,821332,001,2023-07-31_20h47.00.307,arm3_eps,2022.2.5,Win32,59.84440455,6116b0c58bb19949da9ef584,64c7fed44a04f777bb1e18ce,64c8011c936f7e64ed969566,right,-1,0.75,0.3714,6,0.015147126,0.9921,,,,,,46,0,46,0,1,,,,,
,,821332,001,2023-07-31_20h47.00.307,arm3_eps,2022.2.5,Win32,59.84440455,6116b0c58bb19949da9ef584,64c7fed44a04f777bb1e18ce,64c8011c936f7e64ed969566,right,-1,0.75,0.3714,6,-0.02529077,0.4096,,,,,,47,0,47,0,1,,,,,
,,821332,001,2023-07-31_20h47.00.307,arm3_eps,2022.2.5,Win32,59.84440455,6116b0c58bb19949da9ef584,64c7fed44a04f777bb1e18ce,64c8011c936f7e64ed969566,down,1,0.75,0.3714,7,0,0.535,,,,,,48,0,48,0,1,,,,,
,,821332,001,2023-07-31_20h47.00.307,arm3_eps,2022.2.5,Win32,59.84440455,6116b0c58bb19949da9ef584,64c7fed44a04f777bb1e18ce,64c8011c936f7e64ed969566,right,1,0.75,0.3714,7,0.011539509,1.103,,,,,,49,0,49,0,1,,,,,
,,821332,001,2023-07-31_20h47.00.307,arm3_eps,2022.2.5,Win32,59.84440455,6116b0c58bb19949da9ef584,64c7fed44a04f777bb1e18ce,64c8011c936f7e64ed969566,right,1,0.75,0.3714,7,0.031502395,0.2943,,,,,,50,0,50,0,1,,,,,
,,821332,001,2023-07-31_20h47.00.307,arm3_eps,2022.2.5,Win32,59.84440455,6116b0c58bb19949da9ef584,64c7fed44a04f777bb1e18ce,64c8011c936f7e64ed969566,up,-1,0.75,0.3714,8,0,0.6958,,,,,,51,0,51,0,1,,,,,
,,821332,001,2023-07-31_20h47.00.307,arm3_eps,2022.2.5,Win32,59.84440455,6116b0c58bb19949da9ef584,64c7fed44a04f777bb1e18ce,64c8011c936f7e64ed969566,right,-1,0.75,0.3714,8,0.013396388,1.1156,,,,,,52,0,52,0,1,,,,,
,,821332,001,2023-07-31_20h47.00.307,arm3_eps,2022.2.5,Win32,59.84440455,6116b0c58bb19949da9ef584,64c7fed44a04f777bb1e18ce,64c8011c936f7e64ed969566,right,-1,0.75,0.3714,8,0.020118263,0.1905,,,,,,53,0,53,0,1,,,,,
,,821332,001,2023-07-31_20h47.00.307,arm3_eps,2022.2.5,Win32,59.84440455,6116b0c58bb19949da9ef584,64c7fed44a04f777bb1e18ce,64c8011c936f7e64ed969566,right,-1,0.75,0.3714,8,0.029658832,0.3395,,,,,,54,0,54,0,1,,,,,
,,821332,001,2023-07-31_20h47.00.307,arm3_eps,2022.2.5,Win32,59.84440455,6116b0c58bb19949da9ef584,64c7fed44a04f777bb1e18ce,64c8011c936f7e64ed969566,up,-1,0.75,0.3714,7,0,0.4296,,,,,,55,0,55,0,1,,,,,
,,821332,001,2023-07-31_20h47.00.307,arm3_eps,2022.2.5,Win32,59.84440455,6116b0c58bb19949da9ef584,64c7fed44a04f777bb1e18ce,64c8011c936f7e64ed969566,right,-1,0.75,0.3714,7,-0.016538691,0.9072,,,,,,56,0,56,0,1,,,,,
,,821332,001,2023-07-31_20h47.00.307,arm3_eps,2022.2.5,Win32,59.84440455,6116b0c58bb19949da9ef584,64c7fed44a04f777bb1e18ce,64c8011c936f7e64ed969566,right,-1,0.75,0.3714,7,-0.004383231,0.1971,,,,,,57,0,57,0,1,,,,,
,,821332,001,2023-07-31_20h47.00.307,arm3_eps,2022.2.5,Win32,59.84440455,6116b0c58bb19949da9ef584,64c7fed44a04f777bb1e18ce,64c8011c936f7e64ed969566,right,-1,0.75,0.3714,7,0.00531409,0.1808,,,,,,58,0,58,0,1,,,,,
,,821332,001,2023-07-31_20h47.00.307,arm3_eps,2022.2.5,Win32,59.84440455,6116b0c58bb19949da9ef584,64c7fed44a04f777bb1e18ce,64c8011c936f7e64ed969566,right,-1,0.75,0.3714,7,0.014038048,0.3267,,,,,,59,0,59,0,1,,,,,
,,821332,001,2023-07-31_20h47.00.307,arm3_eps,2022.2.5,Win32,59.84440455,6116b0c58bb19949da9ef584,64c7fed44a04f777bb1e18ce,64c8011c936f7e64ed969566,right,-1,0.75,0.3714,7,-0.003933694,0.7375,,,,,,60,0,60,0,1,,,,,
,,821332,001,2023-07-31_20h47.00.307,arm3_eps,2022.2.5,Win32,59.84440455,6116b0c58bb19949da9ef584,64c7fed44a04f777bb1e18ce,64c8011c936f7e64ed969566,right,-1,0.75,0.3714,7,-0.00599962,0.463,,,,,,61,0,61,0,1,,,,,
,,821332,001,2023-07-31_20h47.00.307,arm3_eps,2022.2.5,Win32,59.84440455,6116b0c58bb19949da9ef584,64c7fed44a04f777bb1e18ce,64c8011c936f7e64ed969566,down,1,0.75,0.3714,7,0,0.5234,,,,,,62,0,62,0,1,,,,,
,,821332,001,2023-07-31_20h47.00.307,arm3_eps,2022.2.5,Win32,59.84440455,6116b0c58bb19949da9ef584,64c7fed44a04f777bb1e18ce,64c8011c936f7e64ed969566,right,1,0.75,0.3714,7,0.030701388,0.7615,,,,,,63,0,63,0,1,,,,,
,,821332,001,2023-07-31_20h47.00.307,arm3_eps,2022.2.5,Win32,59.84440455,6116b0c58bb19949da9ef584,64c7fed44a04f777bb1e18ce,64c8011c936f7e64ed969566,right,1,0.75,0.3714,7,0.032067756,0.4191,,,,,,64,0,64,0,1,,,,,
,,821332,001,2023-07-31_20h47.00.307,arm3_eps,2022.2.5,Win32,59.84440455,6116b0c58bb19949da9ef584,64c7fed44a04f777bb1e18ce,64c8011c936f7e64ed969566,right,1,0.75,0.3714,7,0.033606233,0.346,,,,,,65,0,65,0,1,,,,,
,,821332,001,2023-07-31_20h47.00.307,arm3_eps,2022.2.5,Win32,59.84440455,6116b0c58bb19949da9ef584,64c7fed44a04f777bb1e18ce,64c8011c936f7e64ed969566,up,-1,0.75,0.3714,8,0,0.7276,,,,,,66,0,66,0,1,,,,,
,,821332,001,2023-07-31_20h47.00.307,arm3_eps,2022.2.5,Win32,59.84440455,6116b0c58bb19949da9ef584,64c7fed44a04f777bb1e18ce,64c8011c936f7e64ed969566,right,-1,0.75,0.3714,8,0.012863368,1.0525,,,,,,67,0,67,0,1,,,,,
,,821332,001,2023-07-31_20h47.00.307,arm3_eps,2022.2.5,Win32,59.84440455,6116b0c58bb19949da9ef584,64c7fed44a04f777bb1e18ce,64c8011c936f7e64ed969566,right,-1,0.75,0.3714,8,0.012075227,0.3082,,,,,,68,0,68,0,1,,,,,
,,821332,001,2023-07-31_20h47.00.307,arm3_eps,2022.2.5,Win32,59.84440455,6116b0c58bb19949da9ef584,64c7fed44a04f777bb1e18ce,64c8011c936f7e64ed969566,up,-1,0.75,0.3714,7,0,0.3856,,,,,,69,0,69,0,1,,,,,
,,821332,001,2023-07-31_20h47.00.307,arm3_eps,2022.2.5,Win32,59.84440455,6116b0c58bb19949da9ef584,64c7fed44a04f777bb1e18ce,64c8011c936f7e64ed969566,right,-1,0.75,0.3714,7,0.002064156,0.8429,,,,,,70,0,70,0,1,,,,,
,,821332,001,2023-07-31_20h47.00.307,arm3_eps,2022.2.5,Win32,59.84440455,6116b0c58bb19949da9ef584,64c7fed44a04f777bb1e18ce,64c8011c936f7e64ed969566,right,-1,0.75,0.3714,7,-0.00226836,0.219,,,,,,71,0,71,0,1,,,,,
,,821332,001,2023-07-31_20h47.00.307,arm3_eps,2022.2.5,Win32,59.84440455,6116b0c58bb19949da9ef584,64c7fed44a04f777bb1e18ce,64c8011c936f7e64ed969566,right,-1,0.75,0.3714,7,-0.010834717,0.4769,,,,,,72,0,72,0,1,,,,,
,,821332,001,2023-07-31_20h47.00.307,arm3_eps,2022.2.5,Win32,59.84440455,6116b0c58bb19949da9ef584,64c7fed44a04f777bb1e18ce,64c8011c936f7e64ed969566,down,1,0.75,0.3714,7,0,0.4024,,,,,,73,0,73,0,1,,,,,
,,821332,001,2023-07-31_20h47.00.307,arm3_eps,2022.2.5,Win32,59.84440455,6116b0c58bb19949da9ef584,64c7fed44a04f777bb1e18ce,64c8011c936f7e64ed969566,right,1,0.75,0.3714,7,0.000700411,1.1722,,,,,,74,0,74,0,1,,,,,
,,821332,001,2023-07-31_20h47.00.307,arm3_eps,2022.2.5,Win32,59.84440455,6116b0c58bb19949da9ef584,64c7fed44a04f777bb1e18ce,64c8011c936f7e64ed969566,right,1,0.75,0.3714,7,-0.001185998,0.2079,,,,,,75,0,75,0,1,,,,,
,,821332,001,2023-07-31_20h47.00.307,arm3_eps,2022.2.5,Win32,59.84440455,6116b0c58bb19949da9ef584,64c7fed44a04f777bb1e18ce,64c8011c936f7e64ed969566,right,1,0.75,0.3714,7,-0.015520661,0.1794,,,,,,76,0,76,0,1,,,,,
,,821332,001,2023-07-31_20h47.00.307,arm3_eps,2022.2.5,Win32,59.84440455,6116b0c58bb19949da9ef584,64c7fed44a04f777bb1e18ce,64c8011c936f7e64ed969566,down,-1,0.75,0.3714,6,0,0.6287,,,,,,77,0,77,0,1,,,,,
,,821332,001,2023-07-31_20h47.00.307,arm3_eps,2022.2.5,Win32,59.84440455,6116b0c58bb19949da9ef584,64c7fed44a04f777bb1e18ce,64c8011c936f7e64ed969566,right,-1,0.75,0.3714,6,-0.022375879,0.8752,,,,,,78,0,78,0,1,,,,,
,,821332,001,2023-07-31_20h47.00.307,arm3_eps,2022.2.5,Win32,59.84440455,6116b0c58bb19949da9ef584,64c7fed44a04f777bb1e18ce,64c8011c936f7e64ed969566,right,-1,0.75,0.3714,6,-0.036311636,0.2314,,,,,,79,0,79,0,1,,,,,
,,821332,001,2023-07-31_20h47.00.307,arm3_eps,2022.2.5,Win32,59.84440455,6116b0c58bb19949da9ef584,64c7fed44a04f777bb1e18ce,64c8011c936f7e64ed969566,down,-1,0.75,0.3714,6,0,0.5359,,,,,,80,0,80,0,1,,,,,
,,821332,001,2023-07-31_20h47.00.307,arm3_eps,2022.2.5,Win32,59.84440455,6116b0c58bb19949da9ef584,64c7fed44a04f777bb1e18ce,64c8011c936f7e64ed969566,right,-1,0.75,0.3714,6,-0.005960502,1.84,,,,,,81,0,81,0,1,,,,,
,,821332,001,2023-07-31_20h47.00.307,arm3_eps,2022.2.5,Win32,59.84440455,6116b0c58bb19949da9ef584,64c7fed44a04f777bb1e18ce,64c8011c936f7e64ed969566,right,-1,0.75,0.3714,6,-0.000185249,0.1845,,,,,,82,0,82,0,1,,,,,
,,821332,001,2023-07-31_20h47.00.307,arm3_eps,2022.2.5,Win32,59.84440455,6116b0c58bb19949da9ef584,64c7fed44a04f777bb1e18ce,64c8011c936f7e64ed969566,right,-1,0.75,0.3714,6,-0.017456935,0.5904,,,,,,83,0,83,0,1,,,,,
,,821332,001,2023-07-31_20h47.00.307,arm3_eps,2022.2.5,Win32,59.84440455,6116b0c58bb19949da9ef584,64c7fed44a04f777bb1e18ce,64c8011c936f7e64ed969566,down,-1,0.75,0.3714,7,0,0.4052,,,,,,84,0,84,0,1,,,,,
,,821332,001,2023-07-31_20h47.00.307,arm3_eps,2022.2.5,Win32,59.84440455,6116b0c58bb19949da9ef584,64c7fed44a04f777bb1e18ce,64c8011c936f7e64ed969566,right,-1,0.75,0.3714,7,-0.000958861,1.0138,,,,,,85,0,85,0,1,,,,,
,,821332,001,2023-07-31_20h47.00.307,arm3_eps,2022.2.5,Win32,59.84440455,6116b0c58bb19949da9ef584,64c7fed44a04f777bb1e18ce,64c8011c936f7e64ed969566,right,-1,0.75,0.3714,7,-0.010710987,0.2425,,,,,,86,0,86,0,1,,,,,
,,821332,001,2023-07-31_20h47.00.307,arm3_eps,2022.2.5,Win32,59.84440455,6116b0c58bb19949da9ef584,64c7fed44a04f777bb1e18ce,64c8011c936f7e64ed969566,right,-1,0.75,0.3714,7,-0.018356521,0.2507,,,,,,87,0,87,0,1,,,,,
,,821332,001,2023-07-31_20h47.00.307,arm3_eps,2022.2.5,Win32,59.84440455,6116b0c58bb19949da9ef584,64c7fed44a04f777bb1e18ce,64c8011c936f7e64ed969566,down,1,0.75,0.3714,8,0,0.4852,,,,,,88,0,88,0,1,,,,,
,,821332,001,2023-07-31_20h47.00.307,arm3_eps,2022.2.5,Win32,59.84440455,6116b0c58bb19949da9ef584,64c7fed44a04f777bb1e18ce,64c8011c936f7e64ed969566,right,1,0.75,0.3714,8,-0.011074778,0.9021,,,,,,89,0,89,0,1,,,,,
,,821332,001,2023-07-31_20h47.00.307,arm3_eps,2022.2.5,Win32,59.84440455,6116b0c58bb19949da9ef584,64c7fed44a04f777bb1e18ce,64c8011c936f7e64ed969566,right,1,0.75,0.3714,8,0.024934175,0.2543,,,,,,90,0,90,0,1,,,,,
,,821332,001,2023-07-31_20h47.00.307,arm3_eps,2022.2.5,Win32,59.84440455,6116b0c58bb19949da9ef584,64c7fed44a04f777bb1e18ce,64c8011c936f7e64ed969566,up,1,0.75,0.3714,9,0,0.486,,,,,,91,0,91,0,1,,,,,
,,821332,001,2023-07-31_20h47.00.307,arm3_eps,2022.2.5,Win32,59.84440455,6116b0c58bb19949da9ef584,64c7fed44a04f777bb1e18ce,64c8011c936f7e64ed969566,right,1,0.75,0.3714,9,-0.03363553,0.9498,,,,,,92,0,92,0,1,,,,,
,,821332,001,2023-07-31_20h47.00.307,arm3_eps,2022.2.5,Win32,59.84440455,6116b0c58bb19949da9ef584,64c7fed44a04f777bb1e18ce,64c8011c936f7e64ed969566,right,1,0.75,0.3714,9,-0.027209022,0.2405,,,,,,93,0,93,0,1,,,,,
,,821332,001,2023-07-31_20h47.00.307,arm3_eps,2022.2.5,Win32,59.84440455,6116b0c58bb19949da9ef584,64c7fed44a04f777bb1e18ce,64c8011c936f7e64ed969566,down,-1,0.75,0.3714,8,0,0.4604,,,,,,94,0,94,0,1,,,,,
,,821332,001,2023-07-31_20h47.00.307,arm3_eps,2022.2.5,Win32,59.84440455,6116b0c58bb19949da9ef584,64c7fed44a04f777bb1e18ce,64c8011c936f7e64ed969566,right,-1,0.75,0.3714,8,0.012486335,1.0161,,,,,,95,0,95,0,1,,,,,
,,821332,001,2023-07-31_20h47.00.307,arm3_eps,2022.2.5,Win32,59.84440455,6116b0c58bb19949da9ef584,64c7fed44a04f777bb1e18ce,64c8011c936f7e64ed969566,right,-1,0.75,0.3714,8,0.007847747,0.2541,,,,,,96,0,96,0,1,,,,,
,,821332,001,2023-07-31_20h47.00.307,arm3_eps,2022.2.5,Win32,59.84440455,6116b0c58bb19949da9ef584,64c7fed44a04f777bb1e18ce,64c8011c936f7e64ed969566,right,-1,0.75,0.3714,8,0.014446954,0.3554,,,,,,97,0,97,0,1,,,,,
,,821332,001,2023-07-31_20h47.00.307,arm3_eps,2022.2.5,Win32,59.84440455,6116b0c58bb19949da9ef584,64c7fed44a04f777bb1e18ce,64c8011c936f7e64ed969566,up,-1,0.75,0.3714,7,0,0.315,,,,,,98,0,98,0,1,,,,,
,,821332,001,2023-07-31_20h47.00.307,arm3_eps,2022.2.5,Win32,59.84440455,6116b0c58bb19949da9ef584,64c7fed44a04f777bb1e18ce,64c8011c936f7e64ed969566,right,-1,0.75,0.3714,7,-0.011643042,0.6668,,,,,,99,0,99,0,1,,,,,
,,821332,001,2023-07-31_20h47.00.307,arm3_eps,2022.2.5,Win32,59.84440455,6116b0c58bb19949da9ef584,64c7fed44a04f777bb1e18ce,64c8011c936f7e64ed969566,right,-1,0.75,0.3714,7,-0.037211318,0.2669,,,,,,100,0,100,0,1,,,,,
,,821332,001,2023-07-31_20h47.00.307,arm3_eps,2022.2.5,Win32,59.84440455,6116b0c58bb19949da9ef584,64c7fed44a04f777bb1e18ce,64c8011c936f7e64ed969566,down,-1,0.75,0.3714,7,0,0.4525,,,,,,101,0,101,0,1,,,,,
,,821332,001,2023-07-31_20h47.00.307,arm3_eps,2022.2.5,Win32,59.84440455,6116b0c58bb19949da9ef584,64c7fed44a04f777bb1e18ce,64c8011c936f7e64ed969566,right,-1,0.75,0.3714,7,0.028337754,0.8429,,,,,,102,0,102,0,1,,,,,
,,821332,001,2023-07-31_20h47.00.307,arm3_eps,2022.2.5,Win32,59.84440455,6116b0c58bb19949da9ef584,64c7fed44a04f777bb1e18ce,64c8011c936f7e64ed969566,right,-1,0.75,0.3714,7,-0.011177483,0.3021,,,,,,103,0,103,0,1,,,,,
,,821332,001,2023-07-31_20h47.00.307,arm3_eps,2022.2.5,Win32,59.84440455,6116b0c58bb19949da9ef584,64c7fed44a04f777bb1e18ce,64c8011c936f7e64ed969566,right,-1,0.75,0.3714,7,-0.001895132,0.4367,,,,,,104,0,104,0,1,,,,,
,,821332,001,2023-07-31_20h47.00.307,arm3_eps,2022.2.5,Win32,59.84440455,6116b0c58bb19949da9ef584,64c7fed44a04f777bb1e18ce,64c8011c936f7e64ed969566,down,1,0.75,0.3714,8,0,0.7211,,,,,,105,0,105,0,1,,,,,
,,821332,001,2023-07-31_20h47.00.307,arm3_eps,2022.2.5,Win32,59.84440455,6116b0c58bb19949da9ef584,64c7fed44a04f777bb1e18ce,64c8011c936f7e64ed969566,right,1,0.75,0.3714,8,-0.016917497,0.907,,,,,,106,0,106,0,1,,,,,
,,821332,001,2023-07-31_20h47.00.307,arm3_eps,2022.2.5,Win32,59.84440455,6116b0c58bb19949da9ef584,64c7fed44a04f777bb1e18ce,64c8011c936f7e64ed969566,right,1,0.75,0.3714,8,-0.013637672,0.2718,,,,,,107,0,107,0,1,,,,,
,,821332,001,2023-07-31_20h47.00.307,arm3_eps,2022.2.5,Win32,59.84440455,6116b0c58bb19949da9ef584,64c7fed44a04f777bb1e18ce,64c8011c936f7e64ed969566,right,1,0.75,0.3714,8,-0.00652036,0.7641,,,,,,108,0,108,0,1,,,,,
,,821332,001,2023-07-31_20h47.00.307,arm3_eps,2022.2.5,Win32,59.84440455,6116b0c58bb19949da9ef584,64c7fed44a04f777bb1e18ce,64c8011c936f7e64ed969566,up,1,0.75,0.3714,9,0,0.6415,,,,,,109,0,109,0,1,,,,,
,,821332,001,2023-07-31_20h47.00.307,arm3_eps,2022.2.5,Win32,59.84440455,6116b0c58bb19949da9ef584,64c7fed44a04f777bb1e18ce,64c8011c936f7e64ed969566,right,1,0.75,0.3714,9,0.02272292,0.9403,,,,,,110,0,110,0,1,,,,,
,,821332,001,2023-07-31_20h47.00.307,arm3_eps,2022.2.5,Win32,59.84440455,6116b0c58bb19949da9ef584,64c7fed44a04f777bb1e18ce,64c8011c936f7e64ed969566,right,1,0.75,0.3714,9,0.022161203,0.2451,,,,,,111,0,111,0,1,,,,,
,,821332,001,2023-07-31_20h47.00.307,arm3_eps,2022.2.5,Win32,59.84440455,6116b0c58bb19949da9ef584,64c7fed44a04f777bb1e18ce,64c8011c936f7e64ed969566,right,1,0.75,0.3714,9,0.035234721,0.2996,,,,,,112,0,112,0,1,,,,,
,,821332,001,2023-07-31_20h47.00.307,arm3_eps,2022.2.5,Win32,59.84440455,6116b0c58bb19949da9ef584,64c7fed44a04f777bb1e18ce,64c8011c936f7e64ed969566,up,-1,0.75,0.3714,10,0,0.5232,,,,,,113,0,113,0,1,,,,,
,,821332,001,2023-07-31_20h47.00.307,arm3_eps,2022.2.5,Win32,59.84440455,6116b0c58bb19949da9ef584,64c7fed44a04f777bb1e18ce,64c8011c936f7e64ed969566,right,-1,0.75,0.3714,10,-0.007655656,1.0452,,,,,,114,0,114,0,1,,,,,
,,821332,001,2023-07-31_20h47.00.307,arm3_eps,2022.2.5,Win32,59.84440455,6116b0c58bb19949da9ef584,64c7fed44a04f777bb1e18ce,64c8011c936f7e64ed969566,right,-1,0.75,0.3714,10,0.019112116,0.2492,,,,,,115,0,115,0,1,,,,,
,,821332,001,2023-07-31_20h47.00.307,arm3_eps,2022.2.5,Win32,59.84440455,6116b0c58bb19949da9ef584,64c7fed44a04f777bb1e18ce,64c8011c936f7e64ed969566,right,-1,0.75,0.3714,10,0.04016444,0.2968,,,,,,116,0,116,0,1,,,,,
,,821332,001,2023-07-31_20h47.00.307,arm3_eps,2022.2.5,Win32,59.84440455,6116b0c58bb19949da9ef584,64c7fed44a04f777bb1e18ce,64c8011c936f7e64ed969566,up,-1,0.75,0.3714,9,0,0.3809,,,,,,117,0,117,0,1,,,,,
,,821332,001,2023-07-31_20h47.00.307,arm3_eps,2022.2.5,Win32,59.84440455,6116b0c58bb19949da9ef584,64c7fed44a04f777bb1e18ce,64c8011c936f7e64ed969566,right,-1,0.75,0.3714,9,-0.062937421,0.9651,,,,,,118,0,118,0,1,,,,,
,,821332,001,2023-07-31_20h47.00.307,arm3_eps,2022.2.5,Win32,59.84440455,6116b0c58bb19949da9ef584,64c7fed44a04f777bb1e18ce,64c8011c936f7e64ed969566,right,-1,0.75,0.3714,9,-0.049344657,0.3883,,,,,,119,0,119,0,1,,,,,
,,821332,001,2023-07-31_20h47.00.307,arm3_eps,2022.2.5,Win32,59.84440455,6116b0c58bb19949da9ef584,64c7fed44a04f777bb1e18ce,64c8011c936f7e64ed969566,down,1,0.75,0.3714,9,0,0.3518,,,,,,120,0,120,0,1,,,,,
,,821332,001,2023-07-31_20h47.00.307,arm3_eps,2022.2.5,Win32,59.84440455,6116b0c58bb19949da9ef584,64c7fed44a04f777bb1e18ce,64c8011c936f7e64ed969566,right,1,0.75,0.3714,9,-0.005000243,0.6317,,,,,,121,0,121,0,1,,,,,
,,821332,001,2023-07-31_20h47.00.307,arm3_eps,2022.2.5,Win32,59.84440455,6116b0c58bb19949da9ef584,64c7fed44a04f777bb1e18ce,64c8011c936f7e64ed969566,right,1,0.75,0.3714,9,0.021986353,0.4834,,,,,,122,0,122,0,1,,,,,
,,821332,001,2023-07-31_20h47.00.307,arm3_eps,2022.2.5,Win32,59.84440455,6116b0c58bb19949da9ef584,64c7fed44a04f777bb1e18ce,64c8011c936f7e64ed969566,right,1,0.75,0.3714,9,0.011699843,0.2077,,,,,,123,0,123,0,1,,,,,
,,821332,001,2023-07-31_20h47.00.307,arm3_eps,2022.2.5,Win32,59.84440455,6116b0c58bb19949da9ef584,64c7fed44a04f777bb1e18ce,64c8011c936f7e64ed969566,right,1,0.75,0.3714,9,-0.010096608,0.716,,,,,,124,0,124,0,1,,,,,
,,821332,001,2023-07-31_20h47.00.307,arm3_eps,2022.2.5,Win32,59.84440455,6116b0c58bb19949da9ef584,64c7fed44a04f777bb1e18ce,64c8011c936f7e64ed969566,up,-1,0.75,0.3714,10,0,0.672,,,,,,125,0,125,0,1,,,,,
,,821332,001,2023-07-31_20h47.00.307,arm3_eps,2022.2.5,Win32,59.84440455,6116b0c58bb19949da9ef584,64c7fed44a04f777bb1e18ce,64c8011c936f7e64ed969566,right,-1,0.75,0.3714,10,-0.015962579,0.97,,,,,,126,0,126,0,1,,,,,
,,821332,001,2023-07-31_20h47.00.307,arm3_eps,2022.2.5,Win32,59.84440455,6116b0c58bb19949da9ef584,64c7fed44a04f777bb1e18ce,64c8011c936f7e64ed969566,right,-1,0.75,0.3714,10,-0.028264077,0.2725,,,,,,127,0,127,0,1,,,,,
,,821332,001,2023-07-31_20h47.00.307,arm3_eps,2022.2.5,Win32,59.84440455,6116b0c58bb19949da9ef584,64c7fed44a04f777bb1e18ce,64c8011c936f7e64ed969566,right,-1,0.75,0.3714,10,-0.035633392,0.3843,,,,,,128,0,128,0,1,,,,,
,,821332,001,2023-07-31_20h47.00.307,arm3_eps,2022.2.5,Win32,59.84440455,6116b0c58bb19949da9ef584,64c7fed44a04f777bb1e18ce,64c8011c936f7e64ed969566,down,-1,0.75,0.3714,11,0,0.353,,,,,,129,0,129,0,1,,,,,
,,821332,001,2023-07-31_20h47.00.307,arm3_eps,2022.2.5,Win32,59.84440455,6116b0c58bb19949da9ef584,64c7fed44a04f777bb1e18ce,64c8011c936f7e64ed969566,right,-1,0.75,0.3714,11,0.000936681,0.9009,,,,,,130,0,130,0,1,,,,,
,,821332,001,2023-07-31_20h47.00.307,arm3_eps,2022.2.5,Win32,59.84440455,6116b0c58bb19949da9ef584,64c7fed44a04f777bb1e18ce,64c8011c936f7e64ed969566,right,-1,0.75,0.3714,11,-0.020228074,0.3176,,,,,,131,0,131,0,1,,,,,
,,821332,001,2023-07-31_20h47.00.307,arm3_eps,2022.2.5,Win32,59.84440455,6116b0c58bb19949da9ef584,64c7fed44a04f777bb1e18ce,64c8011c936f7e64ed969566,down,-1,0.75,0.3714,12,0,0.4892,,,,,,132,0,132,0,1,,,,,
,,821332,001,2023-07-31_20h47.00.307,arm3_eps,2022.2.5,Win32,59.84440455,6116b0c58bb19949da9ef584,64c7fed44a04f777bb1e18ce,64c8011c936f7e64ed969566,right,-1,0.75,0.3714,12,-0.031842153,1.0287,,,,,,133,0,133,0,1,,,,,
,,821332,001,2023-07-31_20h47.00.307,arm3_eps,2022.2.5,Win32,59.84440455,6116b0c58bb19949da9ef584,64c7fed44a04f777bb1e18ce,64c8011c936f7e64ed969566,right,-1,0.75,0.3714,12,-0.027659963,0.2988,,,,,,134,0,134,0,1,,,,,
,,821332,001,2023-07-31_20h47.00.307,arm3_eps,2022.2.5,Win32,59.84440455,6116b0c58bb19949da9ef584,64c7fed44a04f777bb1e18ce,64c8011c936f7e64ed969566,right,-1,0.75,0.3714,12,-0.014725158,0.277,,,,,,135,0,135,0,1,,,,,
,,821332,001,2023-07-31_20h47.00.307,arm3_eps,2022.2.5,Win32,59.84440455,6116b0c58bb19949da9ef584,64c7fed44a04f777bb1e18ce,64c8011c936f7e64ed969566,down,1,0.75,0.3714,13,0,0.571,,,,,,136,0,136,0,1,,,,,
,,821332,001,2023-07-31_20h47.00.307,arm3_eps,2022.2.5,Win32,59.84440455,6116b0c58bb19949da9ef584,64c7fed44a04f777bb1e18ce,64c8011c936f7e64ed969566,right,1,0.75,0.3714,13,-0.016223039,1.3406,,,,,,137,0,137,0,1,,,,,
,,821332,001,2023-07-31_20h47.00.307,arm3_eps,2022.2.5,Win32,59.84440455,6116b0c58bb19949da9ef584,64c7fed44a04f777bb1e18ce,64c8011c936f7e64ed969566,right,1,0.75,0.3714,13,-0.004902143,0.2726,,,,,,138,0,138,0,1,,,,,
,,821332,001,2023-07-31_20h47.00.307,arm3_eps,2022.2.5,Win32,59.84440455,6116b0c58bb19949da9ef584,64c7fed44a04f777bb1e18ce,64c8011c936f7e64ed969566,right,1,0.75,0.3714,13,-0.027005017,0.2305,,,,,,139,0,139,0,1,,,,,
,,821332,001,2023-07-31_20h47.00.307,arm3_eps,2022.2.5,Win32,59.84440455,6116b0c58bb19949da9ef584,64c7fed44a04f777bb1e18ce,64c8011c936f7e64ed969566,down,1,0.75,0.3714,12,0,0.468,,,,,,140,0,140,0,1,,,,,
,,821332,001,2023-07-31_20h47.00.307,arm3_eps,2022.2.5,Win32,59.84440455,6116b0c58bb19949da9ef584,64c7fed44a04f777bb1e18ce,64c8011c936f7e64ed969566,right,1,0.75,0.3714,12,0.025631562,0.6967,,,,,,141,0,141,0,1,,,,,
,,821332,001,2023-07-31_20h47.00.307,arm3_eps,2022.2.5,Win32,59.84440455,6116b0c58bb19949da9ef584,64c7fed44a04f777bb1e18ce,64c8011c936f7e64ed969566,right,1,0.75,0.3714,12,0.028252533,0.3943,,,,,,142,0,142,0,1,,,,,
,,821332,001,2023-07-31_20h47.00.307,arm3_eps,2022.2.5,Win32,59.84440455,6116b0c58bb19949da9ef584,64c7fed44a04f777bb1e18ce,64c8011c936f7e64ed969566,up,-1,0.75,0.3714,13,0,0.4421,,,,,,143,0,143,0,1,,,,,
,,821332,001,2023-07-31_20h47.00.307,arm3_eps,2022.2.5,Win32,59.84440455,6116b0c58bb19949da9ef584,64c7fed44a04f777bb1e18ce,64c8011c936f7e64ed969566,right,-1,0.75,0.3714,13,0.004608919,1.0766,,,,,,144,0,144,0,1,,,,,
,,821332,001,2023-07-31_20h47.00.307,arm3_eps,2022.2.5,Win32,59.84440455,6116b0c58bb19949da9ef584,64c7fed44a04f777bb1e18ce,64c8011c936f7e64ed969566,right,-1,0.75,0.3714,13,-0.019291849,0.2356,,,,,,145,0,145,0,1,,,,,
,,821332,001,2023-07-31_20h47.00.307,arm3_eps,2022.2.5,Win32,59.84440455,6116b0c58bb19949da9ef584,64c7fed44a04f777bb1e18ce,64c8011c936f7e64ed969566,right,-1,0.75,0.3714,13,0.002721073,0.4082,,,,,,146,0,146,0,1,,,,,
,,821332,001,2023-07-31_20h47.00.307,arm3_eps,2022.2.5,Win32,59.84440455,6116b0c58bb19949da9ef584,64c7fed44a04f777bb1e18ce,64c8011c936f7e64ed969566,up,1,0.75,0.3714,13,0,0.636,,,,,,147,0,147,0,1,,,,,
,,821332,001,2023-07-31_20h47.00.307,arm3_eps,2022.2.5,Win32,59.84440455,6116b0c58bb19949da9ef584,64c7fed44a04f777bb1e18ce,64c8011c936f7e64ed969566,right,1,0.75,0.3714,13,-0.007572106,0.6049,,,,,,148,0,148,0,1,,,,,
,,821332,001,2023-07-31_20h47.00.307,arm3_eps,2022.2.5,Win32,59.84440455,6116b0c58bb19949da9ef584,64c7fed44a04f777bb1e18ce,64c8011c936f7e64ed969566,right,1,0.75,0.3714,13,0.028800784,1.0074,,,,,,149,0,149,0,1,,,,,
,,821332,001,2023-07-31_20h47.00.307,arm3_eps,2022.2.5,Win32,59.84440455,6116b0c58bb19949da9ef584,64c7fed44a04f777bb1e18ce,64c8011c936f7e64ed969566,up,-1,0.75,0.3714,14,0,0.4948,,,,,,150,0,150,0,1,,,,,
,,821332,001,2023-07-31_20h47.00.307,arm3_eps,2022.2.5,Win32,59.84440455,6116b0c58bb19949da9ef584,64c7fed44a04f777bb1e18ce,64c8011c936f7e64ed969566,right,-1,0.75,0.3714,14,0.007165111,0.9789,,,,,,151,0,151,0,1,,,,,
,,821332,001,2023-07-31_20h47.00.307,arm3_eps,2022.2.5,Win32,59.84440455,6116b0c58bb19949da9ef584,64c7fed44a04f777bb1e18ce,64c8011c936f7e64ed969566,right,-1,0.75,0.3714,14,0.012315283,0.2556,,,,,,152,0,152,0,1,,,,,
,,821332,001,2023-07-31_20h47.00.307,arm3_eps,2022.2.5,Win32,59.84440455,6116b0c58bb19949da9ef584,64c7fed44a04f777bb1e18ce,64c8011c936f7e64ed969566,up,-1,0.75,0.3714,13,0,0.5453,,,,,,153,0,153,0,1,,,,,
,,821332,001,2023-07-31_20h47.00.307,arm3_eps,2022.2.5,Win32,59.84440455,6116b0c58bb19949da9ef584,64c7fed44a04f777bb1e18ce,64c8011c936f7e64ed969566,right,-1,0.75,0.3714,13,-0.015462772,0.6973,,,,,,154,0,154,0,1,,,,,
,,821332,001,2023-07-31_20h47.00.307,arm3_eps,2022.2.5,Win32,59.84440455,6116b0c58bb19949da9ef584,64c7fed44a04f777bb1e18ce,64c8011c936f7e64ed969566,right,-1,0.75,0.3714,13,-0.027526604,0.615,,,,,,155,0,155,0,1,,,,,
,,821332,001,2023-07-31_20h47.00.307,arm3_eps,2022.2.5,Win32,59.84440455,6116b0c58bb19949da9ef584,64c7fed44a04f777bb1e18ce,64c8011c936f7e64ed969566,right,-1,0.75,0.3714,13,-0.036921404,0.3634,,,,,,156,0,156,0,1,,,,,
,,821332,001,2023-07-31_20h47.00.307,arm3_eps,2022.2.5,Win32,59.84440455,6116b0c58bb19949da9ef584,64c7fed44a04f777bb1e18ce,64c8011c936f7e64ed969566,up,1,0.75,0.3714,12,0,0.6679,,,,,,157,0,157,0,1,,,,,
,,821332,001,2023-07-31_20h47.00.307,arm3_eps,2022.2.5,Win32,59.84440455,6116b0c58bb19949da9ef584,64c7fed44a04f777bb1e18ce,64c8011c936f7e64ed969566,right,1,0.75,0.3714,12,0.013764872,0.6943,,,,,,158,0,158,0,1,,,,,
,,821332,001,2023-07-31_20h47.00.307,arm3_eps,2022.2.5,Win32,59.84440455,6116b0c58bb19949da9ef584,64c7fed44a04f777bb1e18ce,64c8011c936f7e64ed969566,right,1,0.75,0.3714,12,0.01495967,0.3187,,,,,,159,0,159,0,1,,,,,
,,821332,001,2023-07-31_20h47.00.307,arm3_eps,2022.2.5,Win32,59.84440455,6116b0c58bb19949da9ef584,64c7fed44a04f777bb1e18ce,64c8011c936f7e64ed969566,right,1,0.75,0.3714,12,0.024316938,0.3008,,,,,,160,0,160,0,1,,,,,
,,821332,001,2023-07-31_20h47.00.307,arm3_eps,2022.2.5,Win32,59.84440455,6116b0c58bb19949da9ef584,64c7fed44a04f777bb1e18ce,64c8011c936f7e64ed969566,down,1,0.75,0.3714,11,0,0.7533,,,,,,161,0,161,0,1,,,,,
,,821332,001,2023-07-31_20h47.00.307,arm3_eps,2022.2.5,Win32,59.84440455,6116b0c58bb19949da9ef584,64c7fed44a04f777bb1e18ce,64c8011c936f7e64ed969566,right,1,0.75,0.3714,11,0.021528001,0.5717,,,,,,162,0,162,0,1,,,,,
,,821332,001,2023-07-31_20h47.00.307,arm3_eps,2022.2.5,Win32,59.84440455,6116b0c58bb19949da9ef584,64c7fed44a04f777bb1e18ce,64c8011c936f7e64ed969566,up,1,0.75,0.3714,12,0,0.5968,,,,,,163,0,163,0,1,,,,,
,,821332,001,2023-07-31_20h47.00.307,arm3_eps,2022.2.5,Win32,59.84440455,6116b0c58bb19949da9ef584,64c7fed44a04f777bb1e18ce,64c8011c936f7e64ed969566,right,1,0.75,0.3714,12,0.031351886,1.2498,,,,,,164,0,164,0,1,,,,,
,,821332,001,2023-07-31_20h47.00.307,arm3_eps,2022.2.5,Win32,59.84440455,6116b0c58bb19949da9ef584,64c7fed44a04f777bb1e18ce,64c8011c936f7e64ed969566,right,1,0.75,0.3714,12,0.030280832,0.3029,,,,,,165,0,165,0,1,,,,,
,,821332,001,2023-07-31_20h47.00.307,arm3_eps,2022.2.5,Win32,59.84440455,6116b0c58bb19949da9ef584,64c7fed44a04f777bb1e18ce,64c8011c936f7e64ed969566,up,-1,0.75,0.3714,12,0,0.4762,,,,,,166,0,166,0,1,,,,,
,,821332,001,2023-07-31_20h47.00.307,arm3_eps,2022.2.5,Win32,59.84440455,6116b0c58bb19949da9ef584,64c7fed44a04f777bb1e18ce,64c8011c936f7e64ed969566,right,-1,0.75,0.3714,12,-0.000341239,1.0046,,,,,,167,0,167,0,1,,,,,
,,821332,001,2023-07-31_20h47.00.307,arm3_eps,2022.2.5,Win32,59.84440455,6116b0c58bb19949da9ef584,64c7fed44a04f777bb1e18ce,64c8011c936f7e64ed969566,right,-1,0.75,0.3714,12,0.01231836,0.2503,,,,,,168,0,168,0,1,,,,,
,,821332,001,2023-07-31_20h47.00.307,arm3_eps,2022.2.5,Win32,59.84440455,6116b0c58bb19949da9ef584,64c7fed44a04f777bb1e18ce,64c8011c936f7e64ed969566,down,-1,0.75,0.3714,13,0,0.7117,,,,,,169,0,169,0,1,,,,,
,,821332,001,2023-07-31_20h47.00.307,arm3_eps,2022.2.5,Win32,59.84440455,6116b0c58bb19949da9ef584,64c7fed44a04f777bb1e18ce,64c8011c936f7e64ed969566,right,-1,0.75,0.3714,13,-0.010078085,1.1739,,,,,,170,0,170,0,1,,,,,
,,821332,001,2023-07-31_20h47.00.307,arm3_eps,2022.2.5,Win32,59.84440455,6116b0c58bb19949da9ef584,64c7fed44a04f777bb1e18ce,64c8011c936f7e64ed969566,right,-1,0.75,0.3714,13,-0.016941943,0.2898,,,,,,171,0,171,0,1,,,,,
,,821332,001,2023-07-31_20h47.00.307,arm3_eps,2022.2.5,Win32,59.84440455,6116b0c58bb19949da9ef584,64c7fed44a04f777bb1e18ce,64c8011c936f7e64ed969566,down,1,0.75,0.3714,14,0,0.3784,,,,,,172,0,172,0,1,,,,,
,,821332,001,2023-07-31_20h47.00.307,arm3_eps,2022.2.5,Win32,59.84440455,6116b0c58bb19949da9ef584,64c7fed44a04f777bb1e18ce,64c8011c936f7e64ed969566,right,1,0.75,0.3714,14,0.016025711,1.0903,,,,,,173,0,173,0,1,,,,,
,,821332,001,2023-07-31_20h47.00.307,arm3_eps,2022.2.5,Win32,59.84440455,6116b0c58bb19949da9ef584,64c7fed44a04f777bb1e18ce,64c8011c936f7e64ed969566,right,1,0.75,0.3714,14,0.01516668,0.259,,,,,,174,0,174,0,1,,,,,
,,821332,001,2023-07-31_20h47.00.307,arm3_eps,2022.2.5,Win32,59.84440455,6116b0c58bb19949da9ef584,64c7fed44a04f777bb1e18ce,64c8011c936f7e64ed969566,right,1,0.75,0.3714,14,0.019139543,0.3172,,,,,,175,0,175,0,1,,,,,
,,821332,001,2023-07-31_20h47.00.307,arm3_eps,2022.2.5,Win32,59.84440455,6116b0c58bb19949da9ef584,64c7fed44a04f777bb1e18ce,64c8011c936f7e64ed969566,up,-1,0.75,0.3714,15,0,0.5946,,,,,,176,0,176,0,1,,,,,
,,821332,001,2023-07-31_20h47.00.307,arm3_eps,2022.2.5,Win32,59.84440455,6116b0c58bb19949da9ef584,64c7fed44a04f777bb1e18ce,64c8011c936f7e64ed969566,right,-1,0.75,0.3714,15,0.012990337,0.9016,,,,,,177,0,177,0,1,,,,,
,,821332,001,2023-07-31_20h47.00.307,arm3_eps,2022.2.5,Win32,59.84440455,6116b0c58bb19949da9ef584,64c7fed44a04f777bb1e18ce,64c8011c936f7e64ed969566,right,-1,0.75,0.3714,15,0.007925182,0.2655,,,,,,178,0,178,0,1,,,,,
,,821332,001,2023-07-31_20h47.00.307,arm3_eps,2022.2.5,Win32,59.84440455,6116b0c58bb19949da9ef584,64c7fed44a04f777bb1e18ce,64c8011c936f7e64ed969566,down,1,0.75,0.3714,15,0,0.6834,,,,,,179,0,179,0,1,,,,,
,,821332,001,2023-07-31_20h47.00.307,arm3_eps,2022.2.5,Win32,59.84440455,6116b0c58bb19949da9ef584,64c7fed44a04f777bb1e18ce,64c8011c936f7e64ed969566,right,1,0.75,0.3714,15,-0.028448189,0.6665,,,,,,180,0,180,0,1,,,,,
,,821332,001,2023-07-31_20h47.00.307,arm3_eps,2022.2.5,Win32,59.84440455,6116b0c58bb19949da9ef584,64c7fed44a04f777bb1e18ce,64c8011c936f7e64ed969566,right,1,0.75,0.3714,15,-0.020632779,0.4961,,,,,,181,0,181,0,1,,,,,
,,821332,001,2023-07-31_20h47.00.307,arm3_eps,2022.2.5,Win32,59.84440455,6116b0c58bb19949da9ef584,64c7fed44a04f777bb1e18ce,64c8011c936f7e64ed969566,right,1,0.75,0.3714,15,-0.021928226,0.3501,,,,,,182,0,182,0,1,,,,,
,,821332,001,2023-07-31_20h47.00.307,arm3_eps,2022.2.5,Win32,59.84440455,6116b0c58bb19949da9ef584,64c7fed44a04f777bb1e18ce,64c8011c936f7e64ed969566,right,1,0.75,0.3714,15,-0.007876811,0.5973,,,,,,183,0,183,0,1,,,,,
,,821332,001,2023-07-31_20h47.00.307,arm3_eps,2022.2.5,Win32,59.84440455,6116b0c58bb19949da9ef584,64c7fed44a04f777bb1e18ce,64c8011c936f7e64ed969566,up,1,0.75,0.3714,16,0,0.6208,,,,,,184,0,184,0,1,,,,,
,,821332,001,2023-07-31_20h47.00.307,arm3_eps,2022.2.5,Win32,59.84440455,6116b0c58bb19949da9ef584,64c7fed44a04f777bb1e18ce,64c8011c936f7e64ed969566,right,1,0.75,0.3714,16,0.006347846,0.8603,,,,,,185,0,185,0,1,,,,,
,,821332,001,2023-07-31_20h47.00.307,arm3_eps,2022.2.5,Win32,59.84440455,6116b0c58bb19949da9ef584,64c7fed44a04f777bb1e18ce,64c8011c936f7e64ed969566,right,1,0.75,0.3714,16,-0.017245287,0.2836,,,,,,186,0,186,0,1,,,,,
,,821332,001,2023-07-31_20h47.00.307,arm3_eps,2022.2.5,Win32,59.84440455,6116b0c58bb19949da9ef584,64c7fed44a04f777bb1e18ce,64c8011c936f7e64ed969566,right,1,0.75,0.3714,16,0.000494656,0.5731,,,,,,187,0,187,0,1,,,,,
,,821332,001,2023-07-31_20h47.00.307,arm3_eps,2022.2.5,Win32,59.84440455,6116b0c58bb19949da9ef584,64c7fed44a04f777bb1e18ce,64c8011c936f7e64ed969566,down,-1,0.75,0.3714,16,0,0.6021,,,,,,188,0,188,0,1,,,,,
,,821332,001,2023-07-31_20h47.00.307,arm3_eps,2022.2.5,Win32,59.84440455,6116b0c58bb19949da9ef584,64c7fed44a04f777bb1e18ce,64c8011c936f7e64ed969566,right,-1,0.75,0.3714,16,-0.009491353,1.2884,,,,,,189,0,189,0,1,,,,,
,,821332,001,2023-07-31_20h47.00.307,arm3_eps,2022.2.5,Win32,59.84440455,6116b0c58bb19949da9ef584,64c7fed44a04f777bb1e18ce,64c8011c936f7e64ed969566,right,-1,0.75,0.3714,16,-0.008538731,0.2749,,,,,,190,0,190,0,1,,,,,
,,821332,001,2023-07-31_20h47.00.307,arm3_eps,2022.2.5,Win32,59.84440455,6116b0c58bb19949da9ef584,64c7fed44a04f777bb1e18ce,64c8011c936f7e64ed969566,right,-1,0.75,0.3714,16,-0.000946278,0.1838,,,,,,191,0,191,0,1,,,,,
,,821332,001,2023-07-31_20h47.00.307,arm3_eps,2022.2.5,Win32,59.84440455,6116b0c58bb19949da9ef584,64c7fed44a04f777bb1e18ce,64c8011c936f7e64ed969566,right,-1,0.75,0.3714,16,-0.030515109,0.6162,,,,,,192,0,192,0,1,,,,,
,,821332,001,2023-07-31_20h47.00.307,arm3_eps,2022.2.5,Win32,59.84440455,6116b0c58bb19949da9ef584,64c7fed44a04f777bb1e18ce,64c8011c936f7e64ed969566,down,-1,0.75,0.3714,17,0,0.3829,,,,,,193,0,193,0,1,,,,,
,,821332,001,2023-07-31_20h47.00.307,arm3_eps,2022.2.5,Win32,59.84440455,6116b0c58bb19949da9ef584,64c7fed44a04f777bb1e18ce,64c8011c936f7e64ed969566,right,-1,0.75,0.3714,17,-0.005892471,1.0656,,,,,,194,0,194,0,1,,,,,
,,821332,001,2023-07-31_20h47.00.307,arm3_eps,2022.2.5,Win32,59.84440455,6116b0c58bb19949da9ef584,64c7fed44a04f777bb1e18ce,64c8011c936f7e64ed969566,right,-1,0.75,0.3714,17,-0.014122717,0.279,,,,,,195,0,195,0,1,,,,,
,,821332,001,2023-07-31_20h47.00.307,arm3_eps,2022.2.5,Win32,59.84440455,6116b0c58bb19949da9ef584,64c7fed44a04f777bb1e18ce,64c8011c936f7e64ed969566,right,-1,0.75,0.3714,17,-0.010593784,0.2417,,,,,,196,0,196,0,1,,,,,
,,821332,001,2023-07-31_20h47.00.307,arm3_eps,2022.2.5,Win32,59.84440455,6116b0c58bb19949da9ef584,64c7fed44a04f777bb1e18ce,64c8011c936f7e64ed969566,right,-1,0.75,0.3714,17,-0.010108763,0.2963,,,,,,197,0,197,0,1,,,,,
,,821332,001,2023-07-31_20h47.00.307,arm3_eps,2022.2.5,Win32,59.84440455,6116b0c58bb19949da9ef584,64c7fed44a04f777bb1e18ce,64c8011c936f7e64ed969566,up,-1,0.75,0.3714,16,0,0.7678,,,,,,198,0,198,0,1,,,,,
,,821332,001,2023-07-31_20h47.00.307,arm3_eps,2022.2.5,Win32,59.84440455,6116b0c58bb19949da9ef584,64c7fed44a04f777bb1e18ce,64c8011c936f7e64ed969566,right,-1,0.75,0.3714,16,0.00759006,0.8971,,,,,,199,0,199,0,1,,,,,
,,821332,001,2023-07-31_20h47.00.307,arm3_eps,2022.2.5,Win32,59.84440455,6116b0c58bb19949da9ef584,64c7fed44a04f777bb1e18ce,64c8011c936f7e64ed969566,right,-1,0.75,0.3714,16,0.000256626,0.2484,,,,,,200,0,200,0,1,,,,,
,,821332,001,2023-07-31_20h47.00.307,arm3_eps,2022.2.5,Win32,59.84440455,6116b0c58bb19949da9ef584,64c7fed44a04f777bb1e18ce,64c8011c936f7e64ed969566,right,-1,0.75,0.3714,16,-0.026900979,0.3197,,,,,,201,0,201,0,1,,,,,
,,821332,001,2023-07-31_20h47.00.307,arm3_eps,2022.2.5,Win32,59.84440455,6116b0c58bb19949da9ef584,64c7fed44a04f777bb1e18ce,64c8011c936f7e64ed969566,down,-1,0.75,0.3714,17,0,0.4041,,,,,,202,0,202,0,1,,,,,
,,821332,001,2023-07-31_20h47.00.307,arm3_eps,2022.2.5,Win32,59.84440455,6116b0c58bb19949da9ef584,64c7fed44a04f777bb1e18ce,64c8011c936f7e64ed969566,right,-1,0.75,0.3714,17,-0.013008836,0.9035,,,,,,203,0,203,0,1,,,,,
,,821332,001,2023-07-31_20h47.00.307,arm3_eps,2022.2.5,Win32,59.84440455,6116b0c58bb19949da9ef584,64c7fed44a04f777bb1e18ce,64c8011c936f7e64ed969566,right,-1,0.75,0.3714,17,-0.040597049,0.3623,,,,,,204,0,204,0,1,,,,,
,,821332,001,2023-07-31_20h47.00.307,arm3_eps,2022.2.5,Win32,59.84440455,6116b0c58bb19949da9ef584,64c7fed44a04f777bb1e18ce,64c8011c936f7e64ed969566,down,-1,0.75,0.3714,18,0,0.3398,,,,,,205,0,205,0,1,,,,,
,,821332,001,2023-07-31_20h47.00.307,arm3_eps,2022.2.5,Win32,59.84440455,6116b0c58bb19949da9ef584,64c7fed44a04f777bb1e18ce,64c8011c936f7e64ed969566,right,-1,0.75,0.3714,18,-0.039146585,1.0356,,,,,,206,0,206,0,1,,,,,
,,821332,001,2023-07-31_20h47.00.307,arm3_eps,2022.2.5,Win32,59.84440455,6116b0c58bb19949da9ef584,64c7fed44a04f777bb1e18ce,64c8011c936f7e64ed969566,right,-1,0.75,0.3714,18,-0.062044138,0.274,,,,,,207,0,207,0,1,,,,,
,,821332,001,2023-07-31_20h47.00.307,arm3_eps,2022.2.5,Win32,59.84440455,6116b0c58bb19949da9ef584,64c7fed44a04f777bb1e18ce,64c8011c936f7e64ed969566,right,-1,0.75,0.3714,18,-0.046716502,0.2051,,,,,,208,0,208,0,1,,,,,
,,821332,001,2023-07-31_20h47.00.307,arm3_eps,2022.2.5,Win32,59.84440455,6116b0c58bb19949da9ef584,64c7fed44a04f777bb1e18ce,64c8011c936f7e64ed969566,down,-1,0.75,0.3714,19,0,0.2822,,,,,,209,0,209,0,1,,,,,
,,821332,001,2023-07-31_20h47.00.307,arm3_eps,2022.2.5,Win32,59.84440455,6116b0c58bb19949da9ef584,64c7fed44a04f777bb1e18ce,64c8011c936f7e64ed969566,right,-1,0.75,0.3714,19,-0.028485483,0.9304,,,,,,210,0,210,0,1,,,,,
,,821332,001,2023-07-31_20h47.00.307,arm3_eps,2022.2.5,Win32,59.84440455,6116b0c58bb19949da9ef584,64c7fed44a04f777bb1e18ce,64c8011c936f7e64ed969566,right,-1,0.75,0.3714,19,-0.064832894,0.2771,,,,,,211,0,211,0,1,,,,,
,,821332,001,2023-07-31_20h47.00.307,arm3_eps,2022.2.5,Win32,59.84440455,6116b0c58bb19949da9ef584,64c7fed44a04f777bb1e18ce,64c8011c936f7e64ed969566,right,-1,0.75,0.3714,19,-0.080472024,0.22,,,,,,212,0,212,0,1,,,,,
,,821332,001,2023-07-31_20h47.00.307,arm3_eps,2022.2.5,Win32,59.84440455,6116b0c58bb19949da9ef584,64c7fed44a04f777bb1e18ce,64c8011c936f7e64ed969566,down,1,0.75,0.3714,19,0,0.3665,,,,,,213,0,213,0,1,,,,,
,,821332,001,2023-07-31_20h47.00.307,arm3_eps,2022.2.5,Win32,59.84440455,6116b0c58bb19949da9ef584,64c7fed44a04f777bb1e18ce,64c8011c936f7e64ed969566,right,1,0.75,0.3714,19,0.000527089,1.1431,,,,,,214,0,214,0,1,,,,,
,,821332,001,2023-07-31_20h47.00.307,arm3_eps,2022.2.5,Win32,59.84440455,6116b0c58bb19949da9ef584,64c7fed44a04f777bb1e18ce,64c8011c936f7e64ed969566,right,1,0.75,0.3714,19,-0.011843887,0.2852,,,,,,215,0,215,0,1,,,,,
,,821332,001,2023-07-31_20h47.00.307,arm3_eps,2022.2.5,Win32,59.84440455,6116b0c58bb19949da9ef584,64c7fed44a04f777bb1e18ce,64c8011c936f7e64ed969566,right,1,0.75,0.3714,19,0.011345768,0.4206,,,,,,216,0,216,0,1,,,,,
,,821332,001,2023-07-31_20h47.00.307,arm3_eps,2022.2.5,Win32,59.84440455,6116b0c58bb19949da9ef584,64c7fed44a04f777bb1e18ce,64c8011c936f7e64ed969566,up,1,0.75,0.3714,20,0,0.5907,,,,,,217,0,217,0,1,,,,,
,,821332,001,2023-07-31_20h47.00.307,arm3_eps,2022.2.5,Win32,59.84440455,6116b0c58bb19949da9ef584,64c7fed44a04f777bb1e18ce,64c8011c936f7e64ed969566,right,1,0.75,0.3714,20,-8.07859E-05,0.9479,,,,,,218,0,218,0,1,,,,,
,,821332,001,2023-07-31_20h47.00.307,arm3_eps,2022.2.5,Win32,59.84440455,6116b0c58bb19949da9ef584,64c7fed44a04f777bb1e18ce,64c8011c936f7e64ed969566,right,1,0.75,0.3714,20,-0.009133878,0.1688,,,,,,219,0,219,0,1,,,,,
,,821332,001,2023-07-31_20h47.00.307,arm3_eps,2022.2.5,Win32,59.84440455,6116b0c58bb19949da9ef584,64c7fed44a04f777bb1e18ce,64c8011c936f7e64ed969566,right,1,0.75,0.3714,20,-0.03053196,0.1732,,,,,,220,0,220,0,1,,,,,
,,821332,001,2023-07-31_20h47.00.307,arm3_eps,2022.2.5,Win32,59.84440455,6116b0c58bb19949da9ef584,64c7fed44a04f777bb1e18ce,64c8011c936f7e64ed969566,right,1,0.75,0.3714,20,-0.02746002,0.3328,,,,,,221,0,221,0,1,,,,,
,,821332,001,2023-07-31_20h47.00.307,arm3_eps,2022.2.5,Win32,59.84440455,6116b0c58bb19949da9ef584,64c7fed44a04f777bb1e18ce,64c8011c936f7e64ed969566,down,1,0.75,0.3714,20,0,0.4795,,,,,,222,0,222,0,1,,,,,
,,821332,001,2023-07-31_20h47.00.307,arm3_eps,2022.2.5,Win32,59.84440455,6116b0c58bb19949da9ef584,64c7fed44a04f777bb1e18ce,64c8011c936f7e64ed969566,right,1,0.75,0.3714,20,0.0185138,0.7753,,,,,,223,0,223,0,1,,,,,
,,821332,001,2023-07-31_20h47.00.307,arm3_eps,2022.2.5,Win32,59.84440455,6116b0c58bb19949da9ef584,64c7fed44a04f777bb1e18ce,64c8011c936f7e64ed969566,right,1,0.75,0.3714,20,0.037195046,0.6444,,,,,,224,0,224,0,1,,,,,
,,821332,001,2023-07-31_20h47.00.307,arm3_eps,2022.2.5,Win32,59.84440455,6116b0c58bb19949da9ef584,64c7fed44a04f777bb1e18ce,64c8011c936f7e64ed969566,up,1,0.75,0.3714,21,0,0.7998,,,,,,225,0,225,0,1,,,,,
,,821332,001,2023-07-31_20h47.00.307,arm3_eps,2022.2.5,Win32,59.84440455,6116b0c58bb19949da9ef584,64c7fed44a04f777bb1e18ce,64c8011c936f7e64ed969566,right,1,0.75,0.3714,21,0.024583183,0.7017,,,,,,226,0,226,0,1,,,,,
,,821332,001,2023-07-31_20h47.00.307,arm3_eps,2022.2.5,Win32,59.84440455,6116b0c58bb19949da9ef584,64c7fed44a04f777bb1e18ce,64c8011c936f7e64ed969566,up,1,0.75,0.3714,22,0,0.5877,,,,,,227,0,227,0,1,,,,,
,,821332,001,2023-07-31_20h47.00.307,arm3_eps,2022.2.5,Win32,59.84440455,6116b0c58bb19949da9ef584,64c7fed44a04f777bb1e18ce,64c8011c936f7e64ed969566,right,1,0.75,0.3714,22,0.007484453,1.0223,,,,,,228,0,228,0,1,,,,,
,,821332,001,2023-07-31_20h47.00.307,arm3_eps,2022.2.5,Win32,59.84440455,6116b0c58bb19949da9ef584,64c7fed44a04f777bb1e18ce,64c8011c936f7e64ed969566,right,1,0.75,0.3714,22,0.032918896,0.2995,,,,,,229,0,229,0,1,,,,,
,,821332,001,2023-07-31_20h47.00.307,arm3_eps,2022.2.5,Win32,59.84440455,6116b0c58bb19949da9ef584,64c7fed44a04f777bb1e18ce,64c8011c936f7e64ed969566,right,1,0.75,0.3714,22,0.014753885,0.317,,,,,,230,0,230,0,1,,,,,
,,821332,001,2023-07-31_20h47.00.307,arm3_eps,2022.2.5,Win32,59.84440455,6116b0c58bb19949da9ef584,64c7fed44a04f777bb1e18ce,64c8011c936f7e64ed969566,up,-1,0.75,0.3714,23,0,0.5496,,,,,,231,0,231,0,1,,,,,
,,821332,001,2023-07-31_20h47.00.307,arm3_eps,2022.2.5,Win32,59.84440455,6116b0c58bb19949da9ef584,64c7fed44a04f777bb1e18ce,64c8011c936f7e64ed969566,right,-1,0.75,0.3714,23,0.006417008,0.6816,,,,,,232,0,232,0,1,,,,,
,,821332,001,2023-07-31_20h47.00.307,arm3_eps,2022.2.5,Win32,59.84440455,6116b0c58bb19949da9ef584,64c7fed44a04f777bb1e18ce,64c8011c936f7e64ed969566,up,1,0.75,0.3714,22,0,0.6513,,,,,,233,0,233,0,1,,,,,
,,821332,001,2023-07-31_20h47.00.307,arm3_eps,2022.2.5,Win32,59.84440455,6116b0c58bb19949da9ef584,64c7fed44a04f777bb1e18ce,64c8011c936f7e64ed969566,right,1,0.75,0.3714,22,-0.00224907,1.361,,,,,,234,0,234,0,1,,,,,
,,821332,001,2023-07-31_20h47.00.307,arm3_eps,2022.2.5,Win32,59.84440455,6116b0c58bb19949da9ef584,64c7fed44a04f777bb1e18ce,64c8011c936f7e64ed969566,right,1,0.75,0.3714,22,-0.003590053,0.2469,,,,,,235,0,235,0,1,,,,,
,,821332,001,2023-07-31_20h47.00.307,arm3_eps,2022.2.5,Win32,59.84440455,6116b0c58bb19949da9ef584,64c7fed44a04f777bb1e18ce,64c8011c936f7e64ed969566,right,1,0.75,0.3714,22,0.029393079,0.2431,,,,,,236,0,236,0,1,,,,,
,,821332,001,2023-07-31_20h47.00.307,arm3_eps,2022.2.5,Win32,59.84440455,6116b0c58bb19949da9ef584,64c7fed44a04f777bb1e18ce,64c8011c936f7e64ed969566,right,1,0.75,0.3714,22,0.025601732,0.2768,,,,,,237,0,237,0,1,,,,,
,,821332,001,2023-07-31_20h47.00.307,arm3_eps,2022.2.5,Win32,59.84440455,6116b0c58bb19949da9ef584,64c7fed44a04f777bb1e18ce,64c8011c936f7e64ed969566,up,1,0.75,0.3714,23,0,0.7119,,,,,,238,0,238,0,1,,,,,
,,821332,001,2023-07-31_20h47.00.307,arm3_eps,2022.2.5,Win32,59.84440455,6116b0c58bb19949da9ef584,64c7fed44a04f777bb1e18ce,64c8011c936f7e64ed969566,up,1,0.75,0.3714,24,0,1.3042,,,,,,239,0,239,0,1,,,,,
,,821332,001,2023-07-31_20h47.00.307,arm3_eps,2022.2.5,Win32,59.84440455,6116b0c58bb19949da9ef584,64c7fed44a04f777bb1e18ce,64c8011c936f7e64ed969566,right,1,0.75,0.3714,24,0.040871155,1.0895,,,,,,240,0,240,0,1,,,,,
,,821332,001,2023-07-31_20h47.00.307,arm3_eps,2022.2.5,Win32,59.84440455,6116b0c58bb19949da9ef584,64c7fed44a04f777bb1e18ce,64c8011c936f7e64ed969566,right,1,0.75,0.3714,24,0.02421116,0.3549,,,,,,241,0,241,0,1,,,,,
,,821332,001,2023-07-31_20h47.00.307,arm3_eps,2022.2.5,Win32,59.84440455,6116b0c58bb19949da9ef584,64c7fed44a04f777bb1e18ce,64c8011c936f7e64ed969566,up,1,0.75,0.3714,25,0,0.3483,,,,,,242,0,242,0,1,,,,,
,,821332,001,2023-07-31_20h47.00.307,arm3_eps,2022.2.5,Win32,59.84440455,6116b0c58bb19949da9ef584,64c7fed44a04f777bb1e18ce,64c8011c936f7e64ed969566,up,-1,0.75,0.3714,25,0,1.2405,,,,,,243,0,243,0,1,,,,,
,,821332,001,2023-07-31_20h47.00.307,arm3_eps,2022.2.5,Win32,59.84440455,6116b0c58bb19949da9ef584,64c7fed44a04f777bb1e18ce,64c8011c936f7e64ed969566,right,-1,0.75,0.3714,25,-0.010923575,1.0805,,,,,,244,0,244,0,1,,,,,
,,821332,001,2023-07-31_20h47.00.307,arm3_eps,2022.2.5,Win32,59.84440455,6116b0c58bb19949da9ef584,64c7fed44a04f777bb1e18ce,64c8011c936f7e64ed969566,right,-1,0.75,0.3714,25,-0.057408684,0.2849,,,,,,245,0,245,0,1,,,,,
,,821332,001,2023-07-31_20h47.00.307,arm3_eps,2022.2.5,Win32,59.84440455,6116b0c58bb19949da9ef584,64c7fed44a04f777bb1e18ce,64c8011c936f7e64ed969566,down,-1,0.75,0.3714,26,0,0.4245,,,,,,246,0,246,0,1,,,,,
,,821332,001,2023-07-31_20h47.00.307,arm3_eps,2022.2.5,Win32,59.84440455,6116b0c58bb19949da9ef584,64c7fed44a04f777bb1e18ce,64c8011c936f7e64ed969566,right,-1,0.75,0.3714,26,-0.022606889,1.0341,,,,,,247,0,247,0,1,,,,,
,,821332,001,2023-07-31_20h47.00.307,arm3_eps,2022.2.5,Win32,59.84440455,6116b0c58bb19949da9ef584,64c7fed44a04f777bb1e18ce,64c8011c936f7e64ed969566,right,-1,0.75,0.3714,26,-0.056790996,0.2677,,,,,,248,0,248,0,1,,,,,
,,821332,001,2023-07-31_20h47.00.307,arm3_eps,2022.2.5,Win32,59.84440455,6116b0c58bb19949da9ef584,64c7fed44a04f777bb1e18ce,64c8011c936f7e64ed969566,down,-1,0.75,0.3714,27,0,0.3493,,,,,,249,0,249,0,1,,,,,
,,821332,001,2023-07-31_20h47.00.307,arm3_eps,2022.2.5,Win32,59.84440455,6116b0c58bb19949da9ef584,64c7fed44a04f777bb1e18ce,64c8011c936f7e64ed969566,right,-1,0.75,0.3714,27,-0.00961217,0.8387,,,,,,250,0,250,0,1,,,,,
,,821332,001,2023-07-31_20h47.00.307,arm3_eps,2022.2.5,Win32,59.84440455,6116b0c58bb19949da9ef584,64c7fed44a04f777bb1e18ce,64c8011c936f7e64ed969566,right,-1,0.75,0.3714,27,0.003032653,0.3024,,,,,,251,0,251,0,1,,,,,
,,821332,001,2023-07-31_20h47.00.307,arm3_eps,2022.2.5,Win32,59.84440455,6116b0c58bb19949da9ef584,64c7fed44a04f777bb1e18ce,64c8011c936f7e64ed969566,down,1,0.75,0.3714,27,0,0.8846,,,,,,252,0,252,0,1,,,,,
,,821332,001,2023-07-31_20h47.00.307,arm3_eps,2022.2.5,Win32,59.84440455,6116b0c58bb19949da9ef584,64c7fed44a04f777bb1e18ce,64c8011c936f7e64ed969566,right,1,0.75,0.3714,27,0.00637459,0.8243,,,,,,253,0,253,0,1,,,,,
,,821332,001,2023-07-31_20h47.00.307,arm3_eps,2022.2.5,Win32,59.84440455,6116b0c58bb19949da9ef584,64c7fed44a04f777bb1e18ce,64c8011c936f7e64ed969566,right,1,0.75,0.3714,27,0.019387923,0.3491,,,,,,254,0,254,0,1,,,,,
,,821332,001,2023-07-31_20h47.00.307,arm3_eps,2022.2.5,Win32,59.84440455,6116b0c58bb19949da9ef584,64c7fed44a04f777bb1e18ce,64c8011c936f7e64ed969566,right,1,0.75,0.3714,27,0.022580872,0.2682,,,,,,255,0,255,0,1,,,,,
,,821332,001,2023-07-31_20h47.00.307,arm3_eps,2022.2.5,Win32,59.84440455,6116b0c58bb19949da9ef584,64c7fed44a04f777bb1e18ce,64c8011c936f7e64ed969566,up,1,0.75,0.3714,27,0,0.4331,,,,,,256,0,256,0,1,,,,,
,,821332,001,2023-07-31_20h47.00.307,arm3_eps,2022.2.5,Win32,59.84440455,6116b0c58bb19949da9ef584,64c7fed44a04f777bb1e18ce,64c8011c936f7e64ed969566,right,1,0.75,0.3714,27,0.001990127,0.5641,,,,,,257,0,257,0,1,,,,,
,,821332,001,2023-07-31_20h47.00.307,arm3_eps,2022.2.5,Win32,59.84440455,6116b0c58bb19949da9ef584,64c7fed44a04f777bb1e18ce,64c8011c936f7e64ed969566,right,1,0.75,0.3714,27,-0.006616528,0.3408,,,,,,258,0,258,0,1,,,,,
,,821332,001,2023-07-31_20h47.00.307,arm3_eps,2022.2.5,Win32,59.84440455,6116b0c58bb19949da9ef584,64c7fed44a04f777bb1e18ce,64c8011c936f7e64ed969566,right,1,0.75,0.3714,27,0.009044898,0.3436,,,,,,259,0,259,0,1,,,,,
,,821332,001,2023-07-31_20h47.00.307,arm3_eps,2022.2.5,Win32,59.84440455,6116b0c58bb19949da9ef584,64c7fed44a04f777bb1e18ce,64c8011c936f7e64ed969566,up,1,0.75,0.3714,27,0,0.6651,,,,,,260,0,260,0,1,,,,,
