space_bar.keys,space_bar.rt,participant,session,date,expName,psychopyVersion,OS,frameRate,PROLIFIC_PID,STUDY_ID,SESSION_ID,resp.keys,state,q_prob,eps_prob,score,price,resp.rt,train.thisRepN,train.thisTrialN,train.thisN,train.thisIndex,train.ran,steps.thisRepN,steps.thisTrialN,steps.thisN,steps.thisIndex,steps.ran,blocks.thisRepN,blocks.thisTrialN,blocks.thisN,blocks.thisIndex,blocks.ran
space,10.7981,841126,001,2023-07-31_20h44.28.493,arm3_eps,2022.2.5,Win32,60.00960154,61541ab0876a2758ac6dc72f,64c7fed44a04f777bb1e18ce,64c800fb31f38f7412500573,,,,,,,,,,,,,,,,,,,,,,
space,7.298,841126,001,2023-07-31_20h44.28.493,arm3_eps,2022.2.5,Win32,60.00960154,61541ab0876a2758ac6dc72f,64c7fed44a04f777bb1e18ce,64c800fb31f38f7412500573,,,,,,,,,,,,,,,,,,,,,,
space,78.1589,841126,001,2023-07-31_20h44.28.493,arm3_eps,2022.2.5,Win32,60.00960154,61541ab0876a2758ac6dc72f,64c7fed44a04f777bb1e18ce,64c800fb31f38f7412500573,,,,,,,,,,,,,,,,,,,,,,
space,136.3599,841126,001,2023-07-31_20h44.28.493,arm3_eps,2022.2.5,Win32,60.00960154,61541ab0876a2758ac6dc72f,64c7fed44a04f777bb1e18ce,64c800fb31f38f7412500573,,,,,,,,,,,,,,,,,,,,,,
space,103.5612,841126,001,2023-07-31_20h44.28.493,arm3_eps,2022.2.5,Win32,60.00960154,61541ab0876a2758ac6dc72f,64c7fed44a04f777bb1e18ce,64c800fb31f38f7412500573,,,,,,,,,,,,,,,,,,,,,,
space,10.6343,841126,001,2023-07-31_20h44.28.493,arm3_eps,2022.2.5,Win32,60.00960154,61541ab0876a2758ac6dc72f,64c7fed44a04f777bb1e18ce,64c800fb31f38f7412500573,,,,,,,,,,,,,,,,,,,,,,
space,2.2685,841126,001,2023-07-31_20h44.28.493,arm3_eps,2022.2.5,Win32,60.00960154,61541ab0876a2758ac6dc72f,64c7fed44a04f777bb1e18ce,64c800fb31f38f7412500573,,,,,,,,,,,,,,,,,,,,,,
,,841126,001,2023-07-31_20h44.28.493,arm3_eps,2022.2.5,Win32,60.00960154,61541ab0876a2758ac6dc72f,64c7fed44a04f777bb1e18ce,64c800fb31f38f7412500573,right,1,1,0.2429,0,0.001070686,6.9233,0,0,0,0,1,,,,,,,,,,
,,841126,001,2023-07-31_20h44.28.493,arm3_eps,2022.2.5,Win32,60.00960154,61541ab0876a2758ac6dc72f,64c7fed44a04f777bb1e18ce,64c800fb31f38f7412500573,up,-1,1,0.2429,1,0,5.0084,1,0,1,0,1,,,,,,,,,,
,,841126,001,2023-07-31_20h44.28.493,arm3_eps,2022.2.5,Win32,60.00960154,61541ab0876a2758ac6dc72f,64c7fed44a04f777bb1e18ce,64c800fb31f38f7412500573,right,-1,1,0.2429,1,-0.002252226,3.0443,2,0,2,0,1,,,,,,,,,,
,,841126,001,2023-07-31_20h44.28.493,arm3_eps,2022.2.5,Win32,60.00960154,61541ab0876a2758ac6dc72f,64c7fed44a04f777bb1e18ce,64c800fb31f38f7412500573,up,-1,1,0.2429,0,0,3.6356,3,0,3,0,1,,,,,,,,,,
,,841126,001,2023-07-31_20h44.28.493,arm3_eps,2022.2.5,Win32,60.00960154,61541ab0876a2758ac6dc72f,64c7fed44a04f777bb1e18ce,64c800fb31f38f7412500573,down,1,1,0.2429,1,0,6.595,4,0,4,0,1,,,,,,,,,,
,,841126,001,2023-07-31_20h44.28.493,arm3_eps,2022.2.5,Win32,60.00960154,61541ab0876a2758ac6dc72f,64c7fed44a04f777bb1e18ce,64c800fb31f38f7412500573,right,1,1,0.2429,1,0.009272811,10.1704,5,0,5,0,1,,,,,,,,,,
,,841126,001,2023-07-31_20h44.28.493,arm3_eps,2022.2.5,Win32,60.00960154,61541ab0876a2758ac6dc72f,64c7fed44a04f777bb1e18ce,64c800fb31f38f7412500573,up,-1,1,0.2429,2,0,2.286,6,0,6,0,1,,,,,,,,,,
,,841126,001,2023-07-31_20h44.28.493,arm3_eps,2022.2.5,Win32,60.00960154,61541ab0876a2758ac6dc72f,64c7fed44a04f777bb1e18ce,64c800fb31f38f7412500573,down,1,1,0.2429,3,0,2.0822,7,0,7,0,1,,,,,,,,,,
,,841126,001,2023-07-31_20h44.28.493,arm3_eps,2022.2.5,Win32,60.00960154,61541ab0876a2758ac6dc72f,64c7fed44a04f777bb1e18ce,64c800fb31f38f7412500573,up,1,1,0.2429,4,0,1.8136,8,0,8,0,1,,,,,,,,,,
,,841126,001,2023-07-31_20h44.28.493,arm3_eps,2022.2.5,Win32,60.00960154,61541ab0876a2758ac6dc72f,64c7fed44a04f777bb1e18ce,64c800fb31f38f7412500573,up,1,1,0.2429,5,0,1.2083,9,0,9,0,1,,,,,,,,,,
,,841126,001,2023-07-31_20h44.28.493,arm3_eps,2022.2.5,Win32,60.00960154,61541ab0876a2758ac6dc72f,64c7fed44a04f777bb1e18ce,64c800fb31f38f7412500573,down,1,1,0.2429,4,0,1.1843,10,0,10,0,1,,,,,,,,,,
,,841126,001,2023-07-31_20h44.28.493,arm3_eps,2022.2.5,Win32,60.00960154,61541ab0876a2758ac6dc72f,64c7fed44a04f777bb1e18ce,64c800fb31f38f7412500573,right,1,1,0.2429,4,-0.005414605,2.5714,11,0,11,0,1,,,,,,,,,,
,,841126,001,2023-07-31_20h44.28.493,arm3_eps,2022.2.5,Win32,60.00960154,61541ab0876a2758ac6dc72f,64c7fed44a04f777bb1e18ce,64c800fb31f38f7412500573,up,1,1,0.2429,5,0,0.9341,12,0,12,0,1,,,,,,,,,,
,,841126,001,2023-07-31_20h44.28.493,arm3_eps,2022.2.5,Win32,60.00960154,61541ab0876a2758ac6dc72f,64c7fed44a04f777bb1e18ce,64c800fb31f38f7412500573,right,1,1,0.2429,5,-0.005355028,2.0787,13,0,13,0,1,,,,,,,,,,
,,841126,001,2023-07-31_20h44.28.493,arm3_eps,2022.2.5,Win32,60.00960154,61541ab0876a2758ac6dc72f,64c7fed44a04f777bb1e18ce,64c800fb31f38f7412500573,right,1,1,0.2429,5,0.003818793,1.1343,14,0,14,0,1,,,,,,,,,,
,,841126,001,2023-07-31_20h44.28.493,arm3_eps,2022.2.5,Win32,60.00960154,61541ab0876a2758ac6dc72f,64c7fed44a04f777bb1e18ce,64c800fb31f38f7412500573,right,1,1,0.2429,5,0.010067317,0.8594,15,0,15,0,1,,,,,,,,,,
,,841126,001,2023-07-31_20h44.28.493,arm3_eps,2022.2.5,Win32,60.00960154,61541ab0876a2758ac6dc72f,64c7fed44a04f777bb1e18ce,64c800fb31f38f7412500573,right,1,1,0.2429,5,0.008979196,2.6675,16,0,16,0,1,,,,,,,,,,
,,841126,001,2023-07-31_20h44.28.493,arm3_eps,2022.2.5,Win32,60.00960154,61541ab0876a2758ac6dc72f,64c7fed44a04f777bb1e18ce,64c800fb31f38f7412500573,up,1,1,0.2429,6,0,0.8347,17,0,17,0,1,,,,,,,,,,
,,841126,001,2023-07-31_20h44.28.493,arm3_eps,2022.2.5,Win32,60.00960154,61541ab0876a2758ac6dc72f,64c7fed44a04f777bb1e18ce,64c800fb31f38f7412500573,right,1,1,0.2429,6,0.0048817,2.0923,18,0,18,0,1,,,,,,,,,,
,,841126,001,2023-07-31_20h44.28.493,arm3_eps,2022.2.5,Win32,60.00960154,61541ab0876a2758ac6dc72f,64c7fed44a04f777bb1e18ce,64c800fb31f38f7412500573,right,1,1,0.2429,6,0.002963074,0.4922,19,0,19,0,1,,,,,,,,,,
,,841126,001,2023-07-31_20h44.28.493,arm3_eps,2022.2.5,Win32,60.00960154,61541ab0876a2758ac6dc72f,64c7fed44a04f777bb1e18ce,64c800fb31f38f7412500573,right,1,1,0.2429,6,-0.010630339,0.3997,20,0,20,0,1,,,,,,,,,,
,,841126,001,2023-07-31_20h44.28.493,arm3_eps,2022.2.5,Win32,60.00960154,61541ab0876a2758ac6dc72f,64c7fed44a04f777bb1e18ce,64c800fb31f38f7412500573,up,1,1,0.2429,7,0,1.1999,21,0,21,0,1,,,,,,,,,,
,,841126,001,2023-07-31_20h44.28.493,arm3_eps,2022.2.5,Win32,60.00960154,61541ab0876a2758ac6dc72f,64c7fed44a04f777bb1e18ce,64c800fb31f38f7412500573,right,1,1,0.2429,7,0.008449908,4.234,22,0,22,0,1,,,,,,,,,,
,,841126,001,2023-07-31_20h44.28.493,arm3_eps,2022.2.5,Win32,60.00960154,61541ab0876a2758ac6dc72f,64c7fed44a04f777bb1e18ce,64c800fb31f38f7412500573,up,1,1,0.2429,8,0,0.4933,23,0,23,0,1,,,,,,,,,,
,,841126,001,2023-07-31_20h44.28.493,arm3_eps,2022.2.5,Win32,60.00960154,61541ab0876a2758ac6dc72f,64c7fed44a04f777bb1e18ce,64c800fb31f38f7412500573,right,1,1,0.2429,8,0.00346225,1.6666,24,0,24,0,1,,,,,,,,,,
,,841126,001,2023-07-31_20h44.28.493,arm3_eps,2022.2.5,Win32,60.00960154,61541ab0876a2758ac6dc72f,64c7fed44a04f777bb1e18ce,64c800fb31f38f7412500573,right,1,1,0.2429,8,0.007103246,0.7516,25,0,25,0,1,,,,,,,,,,
,,841126,001,2023-07-31_20h44.28.493,arm3_eps,2022.2.5,Win32,60.00960154,61541ab0876a2758ac6dc72f,64c7fed44a04f777bb1e18ce,64c800fb31f38f7412500573,right,1,1,0.2429,8,0.008425583,0.4488,26,0,26,0,1,,,,,,,,,,
,,841126,001,2023-07-31_20h44.28.493,arm3_eps,2022.2.5,Win32,60.00960154,61541ab0876a2758ac6dc72f,64c7fed44a04f777bb1e18ce,64c800fb31f38f7412500573,up,1,1,0.2429,9,0,0.459,27,0,27,0,1,,,,,,,,,,
,,841126,001,2023-07-31_20h44.28.493,arm3_eps,2022.2.5,Win32,60.00960154,61541ab0876a2758ac6dc72f,64c7fed44a04f777bb1e18ce,64c800fb31f38f7412500573,right,1,1,0.2429,9,0.007423265,1.8796,28,0,28,0,1,,,,,,,,,,
,,841126,001,2023-07-31_20h44.28.493,arm3_eps,2022.2.5,Win32,60.00960154,61541ab0876a2758ac6dc72f,64c7fed44a04f777bb1e18ce,64c800fb31f38f7412500573,up,1,1,0.2429,10,0,0.4876,29,0,29,0,1,,,,,,,,,,
,,841126,001,2023-07-31_20h44.28.493,arm3_eps,2022.2.5,Win32,60.00960154,61541ab0876a2758ac6dc72f,64c7fed44a04f777bb1e18ce,64c800fb31f38f7412500573,right,1,1,0.2429,10,0.015566553,1.0026,30,0,30,0,1,,,,,,,,,,
,,841126,001,2023-07-31_20h44.28.493,arm3_eps,2022.2.5,Win32,60.00960154,61541ab0876a2758ac6dc72f,64c7fed44a04f777bb1e18ce,64c800fb31f38f7412500573,up,-1,1,0.2429,11,0,0.418,31,0,31,0,1,,,,,,,,,,
,,841126,001,2023-07-31_20h44.28.493,arm3_eps,2022.2.5,Win32,60.00960154,61541ab0876a2758ac6dc72f,64c7fed44a04f777bb1e18ce,64c800fb31f38f7412500573,right,-1,1,0.2429,11,-0.001523545,1.1938,32,0,32,0,1,,,,,,,,,,
,,841126,001,2023-07-31_20h44.28.493,arm3_eps,2022.2.5,Win32,60.00960154,61541ab0876a2758ac6dc72f,64c7fed44a04f777bb1e18ce,64c800fb31f38f7412500573,down,1,1,0.2429,12,0,0.7807,33,0,33,0,1,,,,,,,,,,
,,841126,001,2023-07-31_20h44.28.493,arm3_eps,2022.2.5,Win32,60.00960154,61541ab0876a2758ac6dc72f,64c7fed44a04f777bb1e18ce,64c800fb31f38f7412500573,down,1,1,0.2429,11,0,1.3745,34,0,34,0,1,,,,,,,,,,
,,841126,001,2023-07-31_20h44.28.493,arm3_eps,2022.2.5,Win32,60.00960154,61541ab0876a2758ac6dc72f,64c7fed44a04f777bb1e18ce,64c800fb31f38f7412500573,up,-1,1,0.2429,12,0,2.9027,35,0,35,0,1,,,,,,,,,,
,,841126,001,2023-07-31_20h44.28.493,arm3_eps,2022.2.5,Win32,60.00960154,61541ab0876a2758ac6dc72f,64c7fed44a04f777bb1e18ce,64c800fb31f38f7412500573,up,-1,1,0.2429,11,0,1.1589,36,0,36,0,1,,,,,,,,,,
,,841126,001,2023-07-31_20h44.28.493,arm3_eps,2022.2.5,Win32,60.00960154,61541ab0876a2758ac6dc72f,64c7fed44a04f777bb1e18ce,64c800fb31f38f7412500573,right,-1,1,0.2429,11,0.01788386,1.2674,37,0,37,0,1,,,,,,,,,,
,,841126,001,2023-07-31_20h44.28.493,arm3_eps,2022.2.5,Win32,60.00960154,61541ab0876a2758ac6dc72f,64c7fed44a04f777bb1e18ce,64c800fb31f38f7412500573,up,-1,1,0.2429,10,0,0.8315,38,0,38,0,1,,,,,,,,,,
,,841126,001,2023-07-31_20h44.28.493,arm3_eps,2022.2.5,Win32,60.00960154,61541ab0876a2758ac6dc72f,64c7fed44a04f777bb1e18ce,64c800fb31f38f7412500573,down,-1,1,0.2429,11,0,2.6651,39,0,39,0,1,,,,,,,,,,
,,841126,001,2023-07-31_20h44.28.493,arm3_eps,2022.2.5,Win32,60.00960154,61541ab0876a2758ac6dc72f,64c7fed44a04f777bb1e18ce,64c800fb31f38f7412500573,down,-1,1,0.2429,12,0,1.5335,40,0,40,0,1,,,,,,,,,,
,,841126,001,2023-07-31_20h44.28.493,arm3_eps,2022.2.5,Win32,60.00960154,61541ab0876a2758ac6dc72f,64c7fed44a04f777bb1e18ce,64c800fb31f38f7412500573,right,-1,1,0.2429,12,0.002801912,2.0627,41,0,41,0,1,,,,,,,,,,
,,841126,001,2023-07-31_20h44.28.493,arm3_eps,2022.2.5,Win32,60.00960154,61541ab0876a2758ac6dc72f,64c7fed44a04f777bb1e18ce,64c800fb31f38f7412500573,right,-1,1,0.2429,12,-0.00189544,0.4156,42,0,42,0,1,,,,,,,,,,
,,841126,001,2023-07-31_20h44.28.493,arm3_eps,2022.2.5,Win32,60.00960154,61541ab0876a2758ac6dc72f,64c7fed44a04f777bb1e18ce,64c800fb31f38f7412500573,right,-1,1,0.2429,12,-0.009884708,0.3907,43,0,43,0,1,,,,,,,,,,
,,841126,001,2023-07-31_20h44.28.493,arm3_eps,2022.2.5,Win32,60.00960154,61541ab0876a2758ac6dc72f,64c7fed44a04f777bb1e18ce,64c800fb31f38f7412500573,right,-1,1,0.2429,12,-0.013168126,0.7081,44,0,44,0,1,,,,,,,,,,
,,841126,001,2023-07-31_20h44.28.493,arm3_eps,2022.2.5,Win32,60.00960154,61541ab0876a2758ac6dc72f,64c7fed44a04f777bb1e18ce,64c800fb31f38f7412500573,down,-1,1,0.2429,13,0,1.0203,45,0,45,0,1,,,,,,,,,,
,,841126,001,2023-07-31_20h44.28.493,arm3_eps,2022.2.5,Win32,60.00960154,61541ab0876a2758ac6dc72f,64c7fed44a04f777bb1e18ce,64c800fb31f38f7412500573,right,-1,1,0.2429,13,-0.005154125,1.6074,46,0,46,0,1,,,,,,,,,,
,,841126,001,2023-07-31_20h44.28.493,arm3_eps,2022.2.5,Win32,60.00960154,61541ab0876a2758ac6dc72f,64c7fed44a04f777bb1e18ce,64c800fb31f38f7412500573,down,-1,1,0.2429,14,0,0.4826,47,0,47,0,1,,,,,,,,,,
,,841126,001,2023-07-31_20h44.28.493,arm3_eps,2022.2.5,Win32,60.00960154,61541ab0876a2758ac6dc72f,64c7fed44a04f777bb1e18ce,64c800fb31f38f7412500573,right,-1,1,0.2429,14,-0.009911154,1.0333,48,0,48,0,1,,,,,,,,,,
,,841126,001,2023-07-31_20h44.28.493,arm3_eps,2022.2.5,Win32,60.00960154,61541ab0876a2758ac6dc72f,64c7fed44a04f777bb1e18ce,64c800fb31f38f7412500573,down,-1,1,0.2429,14,-0.009911154,0.4232,49,0,49,0,1,,,,,,,,,,
space,24.4796,841126,001,2023-07-31_20h44.28.493,arm3_eps,2022.2.5,Win32,60.00960154,61541ab0876a2758ac6dc72f,64c7fed44a04f777bb1e18ce,64c800fb31f38f7412500573,,,,,,,,,,,,,,,,,,,,,,
space,7.65,841126,001,2023-07-31_20h44.28.493,arm3_eps,2022.2.5,Win32,60.00960154,61541ab0876a2758ac6dc72f,64c7fed44a04f777bb1e18ce,64c800fb31f38f7412500573,,,,,,,,,,,,,,,,,,,,,,
space,20.8685,841126,001,2023-07-31_20h44.28.493,arm3_eps,2022.2.5,Win32,60.00960154,61541ab0876a2758ac6dc72f,64c7fed44a04f777bb1e18ce,64c800fb31f38f7412500573,,,,,,,,,,,,,,,,,,,,,,
space,10.1398,841126,001,2023-07-31_20h44.28.493,arm3_eps,2022.2.5,Win32,60.00960154,61541ab0876a2758ac6dc72f,64c7fed44a04f777bb1e18ce,64c800fb31f38f7412500573,,,,,,,,,,,,,,,,,,,,,,
space,12.1023,841126,001,2023-07-31_20h44.28.493,arm3_eps,2022.2.5,Win32,60.00960154,61541ab0876a2758ac6dc72f,64c7fed44a04f777bb1e18ce,64c800fb31f38f7412500573,,,,,,,,,,,,,,,,,,,,,,
space,1.7,841126,001,2023-07-31_20h44.28.493,arm3_eps,2022.2.5,Win32,60.00960154,61541ab0876a2758ac6dc72f,64c7fed44a04f777bb1e18ce,64c800fb31f38f7412500573,,,,,,,,,,,,,,,,,,,,,,
,,841126,001,2023-07-31_20h44.28.493,arm3_eps,2022.2.5,Win32,60.00960154,61541ab0876a2758ac6dc72f,64c7fed44a04f777bb1e18ce,64c800fb31f38f7412500573,right,-1,0.75,0.2429,0,-0.02345834,2.7307,0,0,0,0,1,,,,,,,,,,
,,841126,001,2023-07-31_20h44.28.493,arm3_eps,2022.2.5,Win32,60.00960154,61541ab0876a2758ac6dc72f,64c7fed44a04f777bb1e18ce,64c800fb31f38f7412500573,down,-1,0.75,0.2429,0,0,0.8679,1,0,1,0,1,,,,,,,,,,
,,841126,001,2023-07-31_20h44.28.493,arm3_eps,2022.2.5,Win32,60.00960154,61541ab0876a2758ac6dc72f,64c7fed44a04f777bb1e18ce,64c800fb31f38f7412500573,right,-1,0.75,0.2429,0,-0.028348004,2.0446,2,0,2,0,1,,,,,,,,,,
,,841126,001,2023-07-31_20h44.28.493,arm3_eps,2022.2.5,Win32,60.00960154,61541ab0876a2758ac6dc72f,64c7fed44a04f777bb1e18ce,64c800fb31f38f7412500573,up,1,0.75,0.2429,-1,0,1.2863,3,0,3,0,1,,,,,,,,,,
,,841126,001,2023-07-31_20h44.28.493,arm3_eps,2022.2.5,Win32,60.00960154,61541ab0876a2758ac6dc72f,64c7fed44a04f777bb1e18ce,64c800fb31f38f7412500573,down,-1,0.75,0.2429,-2,0,1.1177,4,0,4,0,1,,,,,,,,,,
,,841126,001,2023-07-31_20h44.28.493,arm3_eps,2022.2.5,Win32,60.00960154,61541ab0876a2758ac6dc72f,64c7fed44a04f777bb1e18ce,64c800fb31f38f7412500573,right,-1,0.75,0.2429,-2,-0.021058894,1.6116,5,0,5,0,1,,,,,,,,,,
,,841126,001,2023-07-31_20h44.28.493,arm3_eps,2022.2.5,Win32,60.00960154,61541ab0876a2758ac6dc72f,64c7fed44a04f777bb1e18ce,64c800fb31f38f7412500573,down,-1,0.75,0.2429,-1,0,0.4978,6,0,6,0,1,,,,,,,,,,
,,841126,001,2023-07-31_20h44.28.493,arm3_eps,2022.2.5,Win32,60.00960154,61541ab0876a2758ac6dc72f,64c7fed44a04f777bb1e18ce,64c800fb31f38f7412500573,right,-1,0.75,0.2429,-1,-0.015919517,2.64,7,0,7,0,1,,,,,,,,,,
,,841126,001,2023-07-31_20h44.28.493,arm3_eps,2022.2.5,Win32,60.00960154,61541ab0876a2758ac6dc72f,64c7fed44a04f777bb1e18ce,64c800fb31f38f7412500573,down,1,0.75,0.2429,0,0,0.5915,8,0,8,0,1,,,,,,,,,,
,,841126,001,2023-07-31_20h44.28.493,arm3_eps,2022.2.5,Win32,60.00960154,61541ab0876a2758ac6dc72f,64c7fed44a04f777bb1e18ce,64c800fb31f38f7412500573,right,1,0.75,0.2429,0,0.009498115,1.4494,9,0,9,0,1,,,,,,,,,,
,,841126,001,2023-07-31_20h44.28.493,arm3_eps,2022.2.5,Win32,60.00960154,61541ab0876a2758ac6dc72f,64c7fed44a04f777bb1e18ce,64c800fb31f38f7412500573,up,1,0.75,0.2429,0,0,0.6,10,0,10,0,1,,,,,,,,,,
,,841126,001,2023-07-31_20h44.28.493,arm3_eps,2022.2.5,Win32,60.00960154,61541ab0876a2758ac6dc72f,64c7fed44a04f777bb1e18ce,64c800fb31f38f7412500573,right,1,0.75,0.2429,0,0.001270605,1.9682,11,0,11,0,1,,,,,,,,,,
,,841126,001,2023-07-31_20h44.28.493,arm3_eps,2022.2.5,Win32,60.00960154,61541ab0876a2758ac6dc72f,64c7fed44a04f777bb1e18ce,64c800fb31f38f7412500573,up,-1,0.75,0.2429,1,0,0.7639,12,0,12,0,1,,,,,,,,,,
,,841126,001,2023-07-31_20h44.28.493,arm3_eps,2022.2.5,Win32,60.00960154,61541ab0876a2758ac6dc72f,64c7fed44a04f777bb1e18ce,64c800fb31f38f7412500573,right,-1,0.75,0.2429,1,-0.03029047,1.019,13,0,13,0,1,,,,,,,,,,
,,841126,001,2023-07-31_20h44.28.493,arm3_eps,2022.2.5,Win32,60.00960154,61541ab0876a2758ac6dc72f,64c7fed44a04f777bb1e18ce,64c800fb31f38f7412500573,down,-1,0.75,0.2429,2,0,0.5441,14,0,14,0,1,,,,,,,,,,
,,841126,001,2023-07-31_20h44.28.493,arm3_eps,2022.2.5,Win32,60.00960154,61541ab0876a2758ac6dc72f,64c7fed44a04f777bb1e18ce,64c800fb31f38f7412500573,down,1,0.75,0.2429,3,0,1.3635,15,0,15,0,1,,,,,,,,,,
,,841126,001,2023-07-31_20h44.28.493,arm3_eps,2022.2.5,Win32,60.00960154,61541ab0876a2758ac6dc72f,64c7fed44a04f777bb1e18ce,64c800fb31f38f7412500573,right,1,0.75,0.2429,3,0.037760536,1.8062,16,0,16,0,1,,,,,,,,,,
,,841126,001,2023-07-31_20h44.28.493,arm3_eps,2022.2.5,Win32,60.00960154,61541ab0876a2758ac6dc72f,64c7fed44a04f777bb1e18ce,64c800fb31f38f7412500573,up,1,0.75,0.2429,4,0,0.8969,17,0,17,0,1,,,,,,,,,,
,,841126,001,2023-07-31_20h44.28.493,arm3_eps,2022.2.5,Win32,60.00960154,61541ab0876a2758ac6dc72f,64c7fed44a04f777bb1e18ce,64c800fb31f38f7412500573,right,1,0.75,0.2429,4,-0.023004971,3.3964,18,0,18,0,1,,,,,,,,,,
,,841126,001,2023-07-31_20h44.28.493,arm3_eps,2022.2.5,Win32,60.00960154,61541ab0876a2758ac6dc72f,64c7fed44a04f777bb1e18ce,64c800fb31f38f7412500573,right,1,0.75,0.2429,4,-0.00135568,0.6939,19,0,19,0,1,,,,,,,,,,
,,841126,001,2023-07-31_20h44.28.493,arm3_eps,2022.2.5,Win32,60.00960154,61541ab0876a2758ac6dc72f,64c7fed44a04f777bb1e18ce,64c800fb31f38f7412500573,right,1,0.75,0.2429,4,-0.001857399,0.6915,20,0,20,0,1,,,,,,,,,,
,,841126,001,2023-07-31_20h44.28.493,arm3_eps,2022.2.5,Win32,60.00960154,61541ab0876a2758ac6dc72f,64c7fed44a04f777bb1e18ce,64c800fb31f38f7412500573,down,1,0.75,0.2429,3,0,0.6752,21,0,21,0,1,,,,,,,,,,
,,841126,001,2023-07-31_20h44.28.493,arm3_eps,2022.2.5,Win32,60.00960154,61541ab0876a2758ac6dc72f,64c7fed44a04f777bb1e18ce,64c800fb31f38f7412500573,right,1,0.75,0.2429,3,0.031157497,2.4976,22,0,22,0,1,,,,,,,,,,
,,841126,001,2023-07-31_20h44.28.493,arm3_eps,2022.2.5,Win32,60.00960154,61541ab0876a2758ac6dc72f,64c7fed44a04f777bb1e18ce,64c800fb31f38f7412500573,up,1,0.75,0.2429,3,0,1.3183,23,0,23,0,1,,,,,,,,,,
,,841126,001,2023-07-31_20h44.28.493,arm3_eps,2022.2.5,Win32,60.00960154,61541ab0876a2758ac6dc72f,64c7fed44a04f777bb1e18ce,64c800fb31f38f7412500573,up,1,0.75,0.2429,4,0,2.2503,24,0,24,0,1,,,,,,,,,,
,,841126,001,2023-07-31_20h44.28.493,arm3_eps,2022.2.5,Win32,60.00960154,61541ab0876a2758ac6dc72f,64c7fed44a04f777bb1e18ce,64c800fb31f38f7412500573,right,1,0.75,0.2429,4,0.007100628,2.5661,25,0,25,0,1,,,,,,,,,,
,,841126,001,2023-07-31_20h44.28.493,arm3_eps,2022.2.5,Win32,60.00960154,61541ab0876a2758ac6dc72f,64c7fed44a04f777bb1e18ce,64c800fb31f38f7412500573,up,1,0.75,0.2429,5,0,0.6019,26,0,26,0,1,,,,,,,,,,
,,841126,001,2023-07-31_20h44.28.493,arm3_eps,2022.2.5,Win32,60.00960154,61541ab0876a2758ac6dc72f,64c7fed44a04f777bb1e18ce,64c800fb31f38f7412500573,right,1,0.75,0.2429,5,0.021893595,1.7163,27,0,27,0,1,,,,,,,,,,
,,841126,001,2023-07-31_20h44.28.493,arm3_eps,2022.2.5,Win32,60.00960154,61541ab0876a2758ac6dc72f,64c7fed44a04f777bb1e18ce,64c800fb31f38f7412500573,up,-1,0.75,0.2429,6,0,0.5025,28,0,28,0,1,,,,,,,,,,
,,841126,001,2023-07-31_20h44.28.493,arm3_eps,2022.2.5,Win32,60.00960154,61541ab0876a2758ac6dc72f,64c7fed44a04f777bb1e18ce,64c800fb31f38f7412500573,right,-1,0.75,0.2429,6,0.004650239,1.6619,29,0,29,0,1,,,,,,,,,,
,,841126,001,2023-07-31_20h44.28.493,arm3_eps,2022.2.5,Win32,60.00960154,61541ab0876a2758ac6dc72f,64c7fed44a04f777bb1e18ce,64c800fb31f38f7412500573,up,-1,0.75,0.2429,5,0,0.5511,30,0,30,0,1,,,,,,,,,,
,,841126,001,2023-07-31_20h44.28.493,arm3_eps,2022.2.5,Win32,60.00960154,61541ab0876a2758ac6dc72f,64c7fed44a04f777bb1e18ce,64c800fb31f38f7412500573,right,-1,0.75,0.2429,5,-0.007367866,0.9299,31,0,31,0,1,,,,,,,,,,
,,841126,001,2023-07-31_20h44.28.493,arm3_eps,2022.2.5,Win32,60.00960154,61541ab0876a2758ac6dc72f,64c7fed44a04f777bb1e18ce,64c800fb31f38f7412500573,down,-1,0.75,0.2429,5,0,0.5843,32,0,32,0,1,,,,,,,,,,
,,841126,001,2023-07-31_20h44.28.493,arm3_eps,2022.2.5,Win32,60.00960154,61541ab0876a2758ac6dc72f,64c7fed44a04f777bb1e18ce,64c800fb31f38f7412500573,right,-1,0.75,0.2429,5,-0.007867983,0.8468,33,0,33,0,1,,,,,,,,,,
,,841126,001,2023-07-31_20h44.28.493,arm3_eps,2022.2.5,Win32,60.00960154,61541ab0876a2758ac6dc72f,64c7fed44a04f777bb1e18ce,64c800fb31f38f7412500573,down,-1,0.75,0.2429,6,0,0.5507,34,0,34,0,1,,,,,,,,,,
,,841126,001,2023-07-31_20h44.28.493,arm3_eps,2022.2.5,Win32,60.00960154,61541ab0876a2758ac6dc72f,64c7fed44a04f777bb1e18ce,64c800fb31f38f7412500573,right,-1,0.75,0.2429,6,-0.008970782,0.8851,35,0,35,0,1,,,,,,,,,,
,,841126,001,2023-07-31_20h44.28.493,arm3_eps,2022.2.5,Win32,60.00960154,61541ab0876a2758ac6dc72f,64c7fed44a04f777bb1e18ce,64c800fb31f38f7412500573,down,-1,0.75,0.2429,7,0,0.4964,36,0,36,0,1,,,,,,,,,,
,,841126,001,2023-07-31_20h44.28.493,arm3_eps,2022.2.5,Win32,60.00960154,61541ab0876a2758ac6dc72f,64c7fed44a04f777bb1e18ce,64c800fb31f38f7412500573,right,-1,0.75,0.2429,7,-0.018079209,1.0038,37,0,37,0,1,,,,,,,,,,
,,841126,001,2023-07-31_20h44.28.493,arm3_eps,2022.2.5,Win32,60.00960154,61541ab0876a2758ac6dc72f,64c7fed44a04f777bb1e18ce,64c800fb31f38f7412500573,right,-1,0.75,0.2429,7,-0.016906652,0.8687,38,0,38,0,1,,,,,,,,,,
,,841126,001,2023-07-31_20h44.28.493,arm3_eps,2022.2.5,Win32,60.00960154,61541ab0876a2758ac6dc72f,64c7fed44a04f777bb1e18ce,64c800fb31f38f7412500573,down,-1,0.75,0.2429,8,0,0.6108,39,0,39,0,1,,,,,,,,,,
,,841126,001,2023-07-31_20h44.28.493,arm3_eps,2022.2.5,Win32,60.00960154,61541ab0876a2758ac6dc72f,64c7fed44a04f777bb1e18ce,64c800fb31f38f7412500573,right,-1,0.75,0.2429,8,-0.03016415,0.9157,40,0,40,0,1,,,,,,,,,,
,,841126,001,2023-07-31_20h44.28.493,arm3_eps,2022.2.5,Win32,60.00960154,61541ab0876a2758ac6dc72f,64c7fed44a04f777bb1e18ce,64c800fb31f38f7412500573,down,-1,0.75,0.2429,9,0,0.6251,41,0,41,0,1,,,,,,,,,,
,,841126,001,2023-07-31_20h44.28.493,arm3_eps,2022.2.5,Win32,60.00960154,61541ab0876a2758ac6dc72f,64c7fed44a04f777bb1e18ce,64c800fb31f38f7412500573,right,-1,0.75,0.2429,9,-0.001502753,0.9703,42,0,42,0,1,,,,,,,,,,
,,841126,001,2023-07-31_20h44.28.493,arm3_eps,2022.2.5,Win32,60.00960154,61541ab0876a2758ac6dc72f,64c7fed44a04f777bb1e18ce,64c800fb31f38f7412500573,down,-1,0.75,0.2429,10,0,0.9509,43,0,43,0,1,,,,,,,,,,
,,841126,001,2023-07-31_20h44.28.493,arm3_eps,2022.2.5,Win32,60.00960154,61541ab0876a2758ac6dc72f,64c7fed44a04f777bb1e18ce,64c800fb31f38f7412500573,right,-1,0.75,0.2429,10,-0.002028657,1.0804,44,0,44,0,1,,,,,,,,,,
,,841126,001,2023-07-31_20h44.28.493,arm3_eps,2022.2.5,Win32,60.00960154,61541ab0876a2758ac6dc72f,64c7fed44a04f777bb1e18ce,64c800fb31f38f7412500573,up,-1,0.75,0.2429,9,0,1.6469,45,0,45,0,1,,,,,,,,,,
,,841126,001,2023-07-31_20h44.28.493,arm3_eps,2022.2.5,Win32,60.00960154,61541ab0876a2758ac6dc72f,64c7fed44a04f777bb1e18ce,64c800fb31f38f7412500573,right,-1,0.75,0.2429,9,-0.019495834,1.0586,46,0,46,0,1,,,,,,,,,,
,,841126,001,2023-07-31_20h44.28.493,arm3_eps,2022.2.5,Win32,60.00960154,61541ab0876a2758ac6dc72f,64c7fed44a04f777bb1e18ce,64c800fb31f38f7412500573,down,1,0.75,0.2429,10,0,0.6659,47,0,47,0,1,,,,,,,,,,
,,841126,001,2023-07-31_20h44.28.493,arm3_eps,2022.2.5,Win32,60.00960154,61541ab0876a2758ac6dc72f,64c7fed44a04f777bb1e18ce,64c800fb31f38f7412500573,right,1,0.75,0.2429,10,0.000442929,0.9372,48,0,48,0,1,,,,,,,,,,
,,841126,001,2023-07-31_20h44.28.493,arm3_eps,2022.2.5,Win32,60.00960154,61541ab0876a2758ac6dc72f,64c7fed44a04f777bb1e18ce,64c800fb31f38f7412500573,down,1,0.75,0.2429,10,0.000442929,1.2116,49,0,49,0,1,,,,,,,,,,
space,11.9615,841126,001,2023-07-31_20h44.28.493,arm3_eps,2022.2.5,Win32,60.00960154,61541ab0876a2758ac6dc72f,64c7fed44a04f777bb1e18ce,64c800fb31f38f7412500573,,,,,,,,,,,,,,,,,,,,,,
space,14.2317,841126,001,2023-07-31_20h44.28.493,arm3_eps,2022.2.5,Win32,60.00960154,61541ab0876a2758ac6dc72f,64c7fed44a04f777bb1e18ce,64c800fb31f38f7412500573,,,,,,,,,,,,,,,,,,,,,,
space,1.1456,841126,001,2023-07-31_20h44.28.493,arm3_eps,2022.2.5,Win32,60.00960154,61541ab0876a2758ac6dc72f,64c7fed44a04f777bb1e18ce,64c800fb31f38f7412500573,,,,,,,,,,,,,,,,,,,,,,
,,841126,001,2023-07-31_20h44.28.493,arm3_eps,2022.2.5,Win32,60.00960154,61541ab0876a2758ac6dc72f,64c7fed44a04f777bb1e18ce,64c800fb31f38f7412500573,up,1,0.75,0.05,1,0,2.3874,0,0,0,0,1,,,,,,,,,,
,,841126,001,2023-07-31_20h44.28.493,arm3_eps,2022.2.5,Win32,60.00960154,61541ab0876a2758ac6dc72f,64c7fed44a04f777bb1e18ce,64c800fb31f38f7412500573,up,1,0.75,0.05,2,0,1.4265,1,0,1,0,1,,,,,,,,,,
,,841126,001,2023-07-31_20h44.28.493,arm3_eps,2022.2.5,Win32,60.00960154,61541ab0876a2758ac6dc72f,64c7fed44a04f777bb1e18ce,64c800fb31f38f7412500573,down,1,0.75,0.05,1,0,1.6433,2,0,2,0,1,,,,,,,,,,
,,841126,001,2023-07-31_20h44.28.493,arm3_eps,2022.2.5,Win32,60.00960154,61541ab0876a2758ac6dc72f,64c7fed44a04f777bb1e18ce,64c800fb31f38f7412500573,up,1,0.75,0.05,1,0,0.8617,3,0,3,0,1,,,,,,,,,,
,,841126,001,2023-07-31_20h44.28.493,arm3_eps,2022.2.5,Win32,60.00960154,61541ab0876a2758ac6dc72f,64c7fed44a04f777bb1e18ce,64c800fb31f38f7412500573,down,1,0.75,0.05,0,0,0.544,4,0,4,0,1,,,,,,,,,,
,,841126,001,2023-07-31_20h44.28.493,arm3_eps,2022.2.5,Win32,60.00960154,61541ab0876a2758ac6dc72f,64c7fed44a04f777bb1e18ce,64c800fb31f38f7412500573,down,1,0.75,0.05,-1,0,1.3236,5,0,5,0,1,,,,,,,,,,
,,841126,001,2023-07-31_20h44.28.493,arm3_eps,2022.2.5,Win32,60.00960154,61541ab0876a2758ac6dc72f,64c7fed44a04f777bb1e18ce,64c800fb31f38f7412500573,right,1,0.75,0.05,-1,-0.009508681,1.6324,6,0,6,0,1,,,,,,,,,,
,,841126,001,2023-07-31_20h44.28.493,arm3_eps,2022.2.5,Win32,60.00960154,61541ab0876a2758ac6dc72f,64c7fed44a04f777bb1e18ce,64c800fb31f38f7412500573,right,1,0.75,0.05,-1,-0.010549536,1.3738,7,0,7,0,1,,,,,,,,,,
,,841126,001,2023-07-31_20h44.28.493,arm3_eps,2022.2.5,Win32,60.00960154,61541ab0876a2758ac6dc72f,64c7fed44a04f777bb1e18ce,64c800fb31f38f7412500573,up,1,0.75,0.05,-1,0,0.825,8,0,8,0,1,,,,,,,,,,
,,841126,001,2023-07-31_20h44.28.493,arm3_eps,2022.2.5,Win32,60.00960154,61541ab0876a2758ac6dc72f,64c7fed44a04f777bb1e18ce,64c800fb31f38f7412500573,up,1,0.75,0.05,-1,0,1.43,9,0,9,0,1,,,,,,,,,,
,,841126,001,2023-07-31_20h44.28.493,arm3_eps,2022.2.5,Win32,60.00960154,61541ab0876a2758ac6dc72f,64c7fed44a04f777bb1e18ce,64c800fb31f38f7412500573,right,1,0.75,0.05,-1,0.027152628,1.6315,10,0,10,0,1,,,,,,,,,,
,,841126,001,2023-07-31_20h44.28.493,arm3_eps,2022.2.5,Win32,60.00960154,61541ab0876a2758ac6dc72f,64c7fed44a04f777bb1e18ce,64c800fb31f38f7412500573,down,1,0.75,0.05,-2,0,0.8671,11,0,11,0,1,,,,,,,,,,
,,841126,001,2023-07-31_20h44.28.493,arm3_eps,2022.2.5,Win32,60.00960154,61541ab0876a2758ac6dc72f,64c7fed44a04f777bb1e18ce,64c800fb31f38f7412500573,right,1,0.75,0.05,-2,0.015091481,0.8233,12,0,12,0,1,,,,,,,,,,
,,841126,001,2023-07-31_20h44.28.493,arm3_eps,2022.2.5,Win32,60.00960154,61541ab0876a2758ac6dc72f,64c7fed44a04f777bb1e18ce,64c800fb31f38f7412500573,up,1,0.75,0.05,-1,0,0.6249,13,0,13,0,1,,,,,,,,,,
,,841126,001,2023-07-31_20h44.28.493,arm3_eps,2022.2.5,Win32,60.00960154,61541ab0876a2758ac6dc72f,64c7fed44a04f777bb1e18ce,64c800fb31f38f7412500573,up,1,0.75,0.05,0,0,1.0517,14,0,14,0,1,,,,,,,,,,
,,841126,001,2023-07-31_20h44.28.493,arm3_eps,2022.2.5,Win32,60.00960154,61541ab0876a2758ac6dc72f,64c7fed44a04f777bb1e18ce,64c800fb31f38f7412500573,down,1,0.75,0.05,0,0,1.2348,15,0,15,0,1,,,,,,,,,,
,,841126,001,2023-07-31_20h44.28.493,arm3_eps,2022.2.5,Win32,60.00960154,61541ab0876a2758ac6dc72f,64c7fed44a04f777bb1e18ce,64c800fb31f38f7412500573,right,1,0.75,0.05,0,-0.005827238,1.1161,16,0,16,0,1,,,,,,,,,,
,,841126,001,2023-07-31_20h44.28.493,arm3_eps,2022.2.5,Win32,60.00960154,61541ab0876a2758ac6dc72f,64c7fed44a04f777bb1e18ce,64c800fb31f38f7412500573,up,1,0.75,0.05,1,0,0.728,17,0,17,0,1,,,,,,,,,,
,,841126,001,2023-07-31_20h44.28.493,arm3_eps,2022.2.5,Win32,60.00960154,61541ab0876a2758ac6dc72f,64c7fed44a04f777bb1e18ce,64c800fb31f38f7412500573,right,1,0.75,0.05,1,0.02231735,2.013,18,0,18,0,1,,,,,,,,,,
,,841126,001,2023-07-31_20h44.28.493,arm3_eps,2022.2.5,Win32,60.00960154,61541ab0876a2758ac6dc72f,64c7fed44a04f777bb1e18ce,64c800fb31f38f7412500573,up,1,0.75,0.05,1,0,1.3674,19,0,19,0,1,,,,,,,,,,
,,841126,001,2023-07-31_20h44.28.493,arm3_eps,2022.2.5,Win32,60.00960154,61541ab0876a2758ac6dc72f,64c7fed44a04f777bb1e18ce,64c800fb31f38f7412500573,right,1,0.75,0.05,1,0.024829185,1.0252,20,0,20,0,1,,,,,,,,,,
,,841126,001,2023-07-31_20h44.28.493,arm3_eps,2022.2.5,Win32,60.00960154,61541ab0876a2758ac6dc72f,64c7fed44a04f777bb1e18ce,64c800fb31f38f7412500573,up,1,0.75,0.05,2,0,0.7339,21,0,21,0,1,,,,,,,,,,
,,841126,001,2023-07-31_20h44.28.493,arm3_eps,2022.2.5,Win32,60.00960154,61541ab0876a2758ac6dc72f,64c7fed44a04f777bb1e18ce,64c800fb31f38f7412500573,right,1,0.75,0.05,2,-0.003422005,0.6588,22,0,22,0,1,,,,,,,,,,
,,841126,001,2023-07-31_20h44.28.493,arm3_eps,2022.2.5,Win32,60.00960154,61541ab0876a2758ac6dc72f,64c7fed44a04f777bb1e18ce,64c800fb31f38f7412500573,down,1,0.75,0.05,2,0,0.694,23,0,23,0,1,,,,,,,,,,
,,841126,001,2023-07-31_20h44.28.493,arm3_eps,2022.2.5,Win32,60.00960154,61541ab0876a2758ac6dc72f,64c7fed44a04f777bb1e18ce,64c800fb31f38f7412500573,right,1,0.75,0.05,2,0.013979657,0.7468,24,0,24,0,1,,,,,,,,,,
,,841126,001,2023-07-31_20h44.28.493,arm3_eps,2022.2.5,Win32,60.00960154,61541ab0876a2758ac6dc72f,64c7fed44a04f777bb1e18ce,64c800fb31f38f7412500573,up,1,0.75,0.05,3,0,0.5175,25,0,25,0,1,,,,,,,,,,
,,841126,001,2023-07-31_20h44.28.493,arm3_eps,2022.2.5,Win32,60.00960154,61541ab0876a2758ac6dc72f,64c7fed44a04f777bb1e18ce,64c800fb31f38f7412500573,right,1,0.75,0.05,3,0.017311571,0.517,26,0,26,0,1,,,,,,,,,,
,,841126,001,2023-07-31_20h44.28.493,arm3_eps,2022.2.5,Win32,60.00960154,61541ab0876a2758ac6dc72f,64c7fed44a04f777bb1e18ce,64c800fb31f38f7412500573,up,1,0.75,0.05,4,0,1.0571,27,0,27,0,1,,,,,,,,,,
,,841126,001,2023-07-31_20h44.28.493,arm3_eps,2022.2.5,Win32,60.00960154,61541ab0876a2758ac6dc72f,64c7fed44a04f777bb1e18ce,64c800fb31f38f7412500573,right,1,0.75,0.05,4,0.009350507,1.0021,28,0,28,0,1,,,,,,,,,,
,,841126,001,2023-07-31_20h44.28.493,arm3_eps,2022.2.5,Win32,60.00960154,61541ab0876a2758ac6dc72f,64c7fed44a04f777bb1e18ce,64c800fb31f38f7412500573,up,1,0.75,0.05,4,0,0.4416,29,0,29,0,1,,,,,,,,,,
,,841126,001,2023-07-31_20h44.28.493,arm3_eps,2022.2.5,Win32,60.00960154,61541ab0876a2758ac6dc72f,64c7fed44a04f777bb1e18ce,64c800fb31f38f7412500573,right,1,0.75,0.05,4,0.050359209,0.6667,30,0,30,0,1,,,,,,,,,,
,,841126,001,2023-07-31_20h44.28.493,arm3_eps,2022.2.5,Win32,60.00960154,61541ab0876a2758ac6dc72f,64c7fed44a04f777bb1e18ce,64c800fb31f38f7412500573,up,1,0.75,0.05,5,0,0.4603,31,0,31,0,1,,,,,,,,,,
,,841126,001,2023-07-31_20h44.28.493,arm3_eps,2022.2.5,Win32,60.00960154,61541ab0876a2758ac6dc72f,64c7fed44a04f777bb1e18ce,64c800fb31f38f7412500573,right,1,0.75,0.05,5,0.019343813,0.9308,32,0,32,0,1,,,,,,,,,,
,,841126,001,2023-07-31_20h44.28.493,arm3_eps,2022.2.5,Win32,60.00960154,61541ab0876a2758ac6dc72f,64c7fed44a04f777bb1e18ce,64c800fb31f38f7412500573,up,1,0.75,0.05,6,0,0.407,33,0,33,0,1,,,,,,,,,,
,,841126,001,2023-07-31_20h44.28.493,arm3_eps,2022.2.5,Win32,60.00960154,61541ab0876a2758ac6dc72f,64c7fed44a04f777bb1e18ce,64c800fb31f38f7412500573,right,1,0.75,0.05,6,0.003832635,1.0567,34,0,34,0,1,,,,,,,,,,
,,841126,001,2023-07-31_20h44.28.493,arm3_eps,2022.2.5,Win32,60.00960154,61541ab0876a2758ac6dc72f,64c7fed44a04f777bb1e18ce,64c800fb31f38f7412500573,right,1,0.75,0.05,6,0.011703454,0.484,35,0,35,0,1,,,,,,,,,,
,,841126,001,2023-07-31_20h44.28.493,arm3_eps,2022.2.5,Win32,60.00960154,61541ab0876a2758ac6dc72f,64c7fed44a04f777bb1e18ce,64c800fb31f38f7412500573,up,1,0.75,0.05,7,0,0.4675,36,0,36,0,1,,,,,,,,,,
,,841126,001,2023-07-31_20h44.28.493,arm3_eps,2022.2.5,Win32,60.00960154,61541ab0876a2758ac6dc72f,64c7fed44a04f777bb1e18ce,64c800fb31f38f7412500573,down,1,0.75,0.05,6,0,1.8026,37,0,37,0,1,,,,,,,,,,
,,841126,001,2023-07-31_20h44.28.493,arm3_eps,2022.2.5,Win32,60.00960154,61541ab0876a2758ac6dc72f,64c7fed44a04f777bb1e18ce,64c800fb31f38f7412500573,up,-1,0.75,0.05,7,0,0.9829,38,0,38,0,1,,,,,,,,,,
,,841126,001,2023-07-31_20h44.28.493,arm3_eps,2022.2.5,Win32,60.00960154,61541ab0876a2758ac6dc72f,64c7fed44a04f777bb1e18ce,64c800fb31f38f7412500573,up,-1,0.75,0.05,6,0,1.3196,39,0,39,0,1,,,,,,,,,,
,,841126,001,2023-07-31_20h44.28.493,arm3_eps,2022.2.5,Win32,60.00960154,61541ab0876a2758ac6dc72f,64c7fed44a04f777bb1e18ce,64c800fb31f38f7412500573,up,-1,0.75,0.05,5,0,1.6039,40,0,40,0,1,,,,,,,,,,
,,841126,001,2023-07-31_20h44.28.493,arm3_eps,2022.2.5,Win32,60.00960154,61541ab0876a2758ac6dc72f,64c7fed44a04f777bb1e18ce,64c800fb31f38f7412500573,down,-1,0.75,0.05,6,0,1.0817,41,0,41,0,1,,,,,,,,,,
,,841126,001,2023-07-31_20h44.28.493,arm3_eps,2022.2.5,Win32,60.00960154,61541ab0876a2758ac6dc72f,64c7fed44a04f777bb1e18ce,64c800fb31f38f7412500573,down,1,0.75,0.05,6,0,1.0311,42,0,42,0,1,,,,,,,,,,
,,841126,001,2023-07-31_20h44.28.493,arm3_eps,2022.2.5,Win32,60.00960154,61541ab0876a2758ac6dc72f,64c7fed44a04f777bb1e18ce,64c800fb31f38f7412500573,up,1,0.75,0.05,7,0,1.7381,43,0,43,0,1,,,,,,,,,,
,,841126,001,2023-07-31_20h44.28.493,arm3_eps,2022.2.5,Win32,60.00960154,61541ab0876a2758ac6dc72f,64c7fed44a04f777bb1e18ce,64c800fb31f38f7412500573,right,1,0.75,0.05,7,0.003776129,1.097,44,0,44,0,1,,,,,,,,,,
,,841126,001,2023-07-31_20h44.28.493,arm3_eps,2022.2.5,Win32,60.00960154,61541ab0876a2758ac6dc72f,64c7fed44a04f777bb1e18ce,64c800fb31f38f7412500573,up,1,0.75,0.05,8,0,0.5007,45,0,45,0,1,,,,,,,,,,
,,841126,001,2023-07-31_20h44.28.493,arm3_eps,2022.2.5,Win32,60.00960154,61541ab0876a2758ac6dc72f,64c7fed44a04f777bb1e18ce,64c800fb31f38f7412500573,up,1,0.75,0.05,9,0,1.5903,46,0,46,0,1,,,,,,,,,,
,,841126,001,2023-07-31_20h44.28.493,arm3_eps,2022.2.5,Win32,60.00960154,61541ab0876a2758ac6dc72f,64c7fed44a04f777bb1e18ce,64c800fb31f38f7412500573,up,1,0.75,0.05,10,0,1.166,47,0,47,0,1,,,,,,,,,,
,,841126,001,2023-07-31_20h44.28.493,arm3_eps,2022.2.5,Win32,60.00960154,61541ab0876a2758ac6dc72f,64c7fed44a04f777bb1e18ce,64c800fb31f38f7412500573,up,1,0.75,0.05,11,0,1.1693,48,0,48,0,1,,,,,,,,,,
,,841126,001,2023-07-31_20h44.28.493,arm3_eps,2022.2.5,Win32,60.00960154,61541ab0876a2758ac6dc72f,64c7fed44a04f777bb1e18ce,64c800fb31f38f7412500573,down,1,0.75,0.05,11,0,1.262,49,0,49,0,1,,,,,,,,,,
space,20.0465,841126,001,2023-07-31_20h44.28.493,arm3_eps,2022.2.5,Win32,60.00960154,61541ab0876a2758ac6dc72f,64c7fed44a04f777bb1e18ce,64c800fb31f38f7412500573,,,,,,,,,,,,,,,,,,,,,,
space,0.6667,841126,001,2023-07-31_20h44.28.493,arm3_eps,2022.2.5,Win32,60.00960154,61541ab0876a2758ac6dc72f,64c7fed44a04f777bb1e18ce,64c800fb31f38f7412500573,,,,,,,,,,,,,,,,,,,,,,
,,841126,001,2023-07-31_20h44.28.493,arm3_eps,2022.2.5,Win32,60.00960154,61541ab0876a2758ac6dc72f,64c7fed44a04f777bb1e18ce,64c800fb31f38f7412500573,down,-1,0.75,0.5,-1,0,1.4303,0,0,0,0,1,,,,,,,,,,
,,841126,001,2023-07-31_20h44.28.493,arm3_eps,2022.2.5,Win32,60.00960154,61541ab0876a2758ac6dc72f,64c7fed44a04f777bb1e18ce,64c800fb31f38f7412500573,right,-1,0.75,0.5,-1,-0.030144548,1.5862,1,0,1,0,1,,,,,,,,,,
,,841126,001,2023-07-31_20h44.28.493,arm3_eps,2022.2.5,Win32,60.00960154,61541ab0876a2758ac6dc72f,64c7fed44a04f777bb1e18ce,64c800fb31f38f7412500573,down,-1,0.75,0.5,-1,0,0.3839,2,0,2,0,1,,,,,,,,,,
,,841126,001,2023-07-31_20h44.28.493,arm3_eps,2022.2.5,Win32,60.00960154,61541ab0876a2758ac6dc72f,64c7fed44a04f777bb1e18ce,64c800fb31f38f7412500573,right,-1,0.75,0.5,-1,0.007896144,0.6103,3,0,3,0,1,,,,,,,,,,
,,841126,001,2023-07-31_20h44.28.493,arm3_eps,2022.2.5,Win32,60.00960154,61541ab0876a2758ac6dc72f,64c7fed44a04f777bb1e18ce,64c800fb31f38f7412500573,down,1,0.75,0.5,0,0,0.7316,4,0,4,0,1,,,,,,,,,,
,,841126,001,2023-07-31_20h44.28.493,arm3_eps,2022.2.5,Win32,60.00960154,61541ab0876a2758ac6dc72f,64c7fed44a04f777bb1e18ce,64c800fb31f38f7412500573,right,1,0.75,0.5,0,-0.016262362,0.5149,5,0,5,0,1,,,,,,,,,,
,,841126,001,2023-07-31_20h44.28.493,arm3_eps,2022.2.5,Win32,60.00960154,61541ab0876a2758ac6dc72f,64c7fed44a04f777bb1e18ce,64c800fb31f38f7412500573,right,1,0.75,0.5,0,-0.003254772,0.8591,6,0,6,0,1,,,,,,,,,,
,,841126,001,2023-07-31_20h44.28.493,arm3_eps,2022.2.5,Win32,60.00960154,61541ab0876a2758ac6dc72f,64c7fed44a04f777bb1e18ce,64c800fb31f38f7412500573,up,-1,0.75,0.5,1,0,0.7102,7,0,7,0,1,,,,,,,,,,
,,841126,001,2023-07-31_20h44.28.493,arm3_eps,2022.2.5,Win32,60.00960154,61541ab0876a2758ac6dc72f,64c7fed44a04f777bb1e18ce,64c800fb31f38f7412500573,right,-1,0.75,0.5,1,0.008434703,1.0516,8,0,8,0,1,,,,,,,,,,
,,841126,001,2023-07-31_20h44.28.493,arm3_eps,2022.2.5,Win32,60.00960154,61541ab0876a2758ac6dc72f,64c7fed44a04f777bb1e18ce,64c800fb31f38f7412500573,down,-1,0.75,0.5,2,0,0.4095,9,0,9,0,1,,,,,,,,,,
,,841126,001,2023-07-31_20h44.28.493,arm3_eps,2022.2.5,Win32,60.00960154,61541ab0876a2758ac6dc72f,64c7fed44a04f777bb1e18ce,64c800fb31f38f7412500573,right,-1,0.75,0.5,2,0.002838376,0.3703,10,0,10,0,1,,,,,,,,,,
,,841126,001,2023-07-31_20h44.28.493,arm3_eps,2022.2.5,Win32,60.00960154,61541ab0876a2758ac6dc72f,64c7fed44a04f777bb1e18ce,64c800fb31f38f7412500573,up,-1,0.75,0.5,1,0,0.3567,11,0,11,0,1,,,,,,,,,,
,,841126,001,2023-07-31_20h44.28.493,arm3_eps,2022.2.5,Win32,60.00960154,61541ab0876a2758ac6dc72f,64c7fed44a04f777bb1e18ce,64c800fb31f38f7412500573,right,-1,0.75,0.5,1,0.007093245,0.6506,12,0,12,0,1,,,,,,,,,,
,,841126,001,2023-07-31_20h44.28.493,arm3_eps,2022.2.5,Win32,60.00960154,61541ab0876a2758ac6dc72f,64c7fed44a04f777bb1e18ce,64c800fb31f38f7412500573,down,-1,0.75,0.5,2,0,0.5968,13,0,13,0,1,,,,,,,,,,
,,841126,001,2023-07-31_20h44.28.493,arm3_eps,2022.2.5,Win32,60.00960154,61541ab0876a2758ac6dc72f,64c7fed44a04f777bb1e18ce,64c800fb31f38f7412500573,right,-1,0.75,0.5,2,-0.004926271,0.6475,14,0,14,0,1,,,,,,,,,,
,,841126,001,2023-07-31_20h44.28.493,arm3_eps,2022.2.5,Win32,60.00960154,61541ab0876a2758ac6dc72f,64c7fed44a04f777bb1e18ce,64c800fb31f38f7412500573,up,1,0.75,0.5,1,0,0.4686,15,0,15,0,1,,,,,,,,,,
,,841126,001,2023-07-31_20h44.28.493,arm3_eps,2022.2.5,Win32,60.00960154,61541ab0876a2758ac6dc72f,64c7fed44a04f777bb1e18ce,64c800fb31f38f7412500573,right,1,0.75,0.5,1,0.028243095,0.4072,16,0,16,0,1,,,,,,,,,,
,,841126,001,2023-07-31_20h44.28.493,arm3_eps,2022.2.5,Win32,60.00960154,61541ab0876a2758ac6dc72f,64c7fed44a04f777bb1e18ce,64c800fb31f38f7412500573,down,1,0.75,0.5,0,0,0.2731,17,0,17,0,1,,,,,,,,,,
,,841126,001,2023-07-31_20h44.28.493,arm3_eps,2022.2.5,Win32,60.00960154,61541ab0876a2758ac6dc72f,64c7fed44a04f777bb1e18ce,64c800fb31f38f7412500573,up,-1,0.75,0.5,1,0,1.6339,18,0,18,0,1,,,,,,,,,,
,,841126,001,2023-07-31_20h44.28.493,arm3_eps,2022.2.5,Win32,60.00960154,61541ab0876a2758ac6dc72f,64c7fed44a04f777bb1e18ce,64c800fb31f38f7412500573,up,1,0.75,0.5,0,0,1.0198,19,0,19,0,1,,,,,,,,,,
,,841126,001,2023-07-31_20h44.28.493,arm3_eps,2022.2.5,Win32,60.00960154,61541ab0876a2758ac6dc72f,64c7fed44a04f777bb1e18ce,64c800fb31f38f7412500573,up,1,0.75,0.5,1,0,1.7014,20,0,20,0,1,,,,,,,,,,
,,841126,001,2023-07-31_20h44.28.493,arm3_eps,2022.2.5,Win32,60.00960154,61541ab0876a2758ac6dc72f,64c7fed44a04f777bb1e18ce,64c800fb31f38f7412500573,right,1,0.75,0.5,1,-0.003833919,0.9816,21,0,21,0,1,,,,,,,,,,
,,841126,001,2023-07-31_20h44.28.493,arm3_eps,2022.2.5,Win32,60.00960154,61541ab0876a2758ac6dc72f,64c7fed44a04f777bb1e18ce,64c800fb31f38f7412500573,up,-1,0.75,0.5,1,0,0.4921,22,0,22,0,1,,,,,,,,,,
,,841126,001,2023-07-31_20h44.28.493,arm3_eps,2022.2.5,Win32,60.00960154,61541ab0876a2758ac6dc72f,64c7fed44a04f777bb1e18ce,64c800fb31f38f7412500573,right,-1,0.75,0.5,1,0.024595108,0.6531,23,0,23,0,1,,,,,,,,,,
,,841126,001,2023-07-31_20h44.28.493,arm3_eps,2022.2.5,Win32,60.00960154,61541ab0876a2758ac6dc72f,64c7fed44a04f777bb1e18ce,64c800fb31f38f7412500573,up,1,0.75,0.5,0,0,0.265,24,0,24,0,1,,,,,,,,,,
,,841126,001,2023-07-31_20h44.28.493,arm3_eps,2022.2.5,Win32,60.00960154,61541ab0876a2758ac6dc72f,64c7fed44a04f777bb1e18ce,64c800fb31f38f7412500573,right,1,0.75,0.5,0,-0.002160772,0.5674,25,0,25,0,1,,,,,,,,,,
,,841126,001,2023-07-31_20h44.28.493,arm3_eps,2022.2.5,Win32,60.00960154,61541ab0876a2758ac6dc72f,64c7fed44a04f777bb1e18ce,64c800fb31f38f7412500573,up,1,0.75,0.5,1,0,0.5123,26,0,26,0,1,,,,,,,,,,
,,841126,001,2023-07-31_20h44.28.493,arm3_eps,2022.2.5,Win32,60.00960154,61541ab0876a2758ac6dc72f,64c7fed44a04f777bb1e18ce,64c800fb31f38f7412500573,right,1,0.75,0.5,1,-0.017253814,1.1013,27,0,27,0,1,,,,,,,,,,
,,841126,001,2023-07-31_20h44.28.493,arm3_eps,2022.2.5,Win32,60.00960154,61541ab0876a2758ac6dc72f,64c7fed44a04f777bb1e18ce,64c800fb31f38f7412500573,down,-1,0.75,0.5,0,0,0.3915,28,0,28,0,1,,,,,,,,,,
,,841126,001,2023-07-31_20h44.28.493,arm3_eps,2022.2.5,Win32,60.00960154,61541ab0876a2758ac6dc72f,64c7fed44a04f777bb1e18ce,64c800fb31f38f7412500573,right,-1,0.75,0.5,0,0.03623704,0.6007,29,0,29,0,1,,,,,,,,,,
,,841126,001,2023-07-31_20h44.28.493,arm3_eps,2022.2.5,Win32,60.00960154,61541ab0876a2758ac6dc72f,64c7fed44a04f777bb1e18ce,64c800fb31f38f7412500573,up,1,0.75,0.5,0,0,0.2795,30,0,30,0,1,,,,,,,,,,
,,841126,001,2023-07-31_20h44.28.493,arm3_eps,2022.2.5,Win32,60.00960154,61541ab0876a2758ac6dc72f,64c7fed44a04f777bb1e18ce,64c800fb31f38f7412500573,right,1,0.75,0.5,0,-0.007825194,0.6353,31,0,31,0,1,,,,,,,,,,
,,841126,001,2023-07-31_20h44.28.493,arm3_eps,2022.2.5,Win32,60.00960154,61541ab0876a2758ac6dc72f,64c7fed44a04f777bb1e18ce,64c800fb31f38f7412500573,down,-1,0.75,0.5,-1,0,0.3771,32,0,32,0,1,,,,,,,,,,
,,841126,001,2023-07-31_20h44.28.493,arm3_eps,2022.2.5,Win32,60.00960154,61541ab0876a2758ac6dc72f,64c7fed44a04f777bb1e18ce,64c800fb31f38f7412500573,right,-1,0.75,0.5,-1,-0.028473531,0.4009,33,0,33,0,1,,,,,,,,,,
,,841126,001,2023-07-31_20h44.28.493,arm3_eps,2022.2.5,Win32,60.00960154,61541ab0876a2758ac6dc72f,64c7fed44a04f777bb1e18ce,64c800fb31f38f7412500573,up,1,0.75,0.5,-2,0,0.4227,34,0,34,0,1,,,,,,,,,,
,,841126,001,2023-07-31_20h44.28.493,arm3_eps,2022.2.5,Win32,60.00960154,61541ab0876a2758ac6dc72f,64c7fed44a04f777bb1e18ce,64c800fb31f38f7412500573,right,1,0.75,0.5,-2,0.014273623,0.685,35,0,35,0,1,,,,,,,,,,
,,841126,001,2023-07-31_20h44.28.493,arm3_eps,2022.2.5,Win32,60.00960154,61541ab0876a2758ac6dc72f,64c7fed44a04f777bb1e18ce,64c800fb31f38f7412500573,up,1,0.75,0.5,-1,0,0.9997,36,0,36,0,1,,,,,,,,,,
,,841126,001,2023-07-31_20h44.28.493,arm3_eps,2022.2.5,Win32,60.00960154,61541ab0876a2758ac6dc72f,64c7fed44a04f777bb1e18ce,64c800fb31f38f7412500573,right,1,0.75,0.5,-1,0.02536565,0.5646,37,0,37,0,1,,,,,,,,,,
,,841126,001,2023-07-31_20h44.28.493,arm3_eps,2022.2.5,Win32,60.00960154,61541ab0876a2758ac6dc72f,64c7fed44a04f777bb1e18ce,64c800fb31f38f7412500573,up,-1,0.75,0.5,0,0,0.5999,38,0,38,0,1,,,,,,,,,,
,,841126,001,2023-07-31_20h44.28.493,arm3_eps,2022.2.5,Win32,60.00960154,61541ab0876a2758ac6dc72f,64c7fed44a04f777bb1e18ce,64c800fb31f38f7412500573,up,-1,0.75,0.5,-1,0,1.2591,39,0,39,0,1,,,,,,,,,,
,,841126,001,2023-07-31_20h44.28.493,arm3_eps,2022.2.5,Win32,60.00960154,61541ab0876a2758ac6dc72f,64c7fed44a04f777bb1e18ce,64c800fb31f38f7412500573,up,-1,0.75,0.5,-1,0,1.023,40,0,40,0,1,,,,,,,,,,
,,841126,001,2023-07-31_20h44.28.493,arm3_eps,2022.2.5,Win32,60.00960154,61541ab0876a2758ac6dc72f,64c7fed44a04f777bb1e18ce,64c800fb31f38f7412500573,right,-1,0.75,0.5,-1,-0.011055145,0.9665,41,0,41,0,1,,,,,,,,,,
,,841126,001,2023-07-31_20h44.28.493,arm3_eps,2022.2.5,Win32,60.00960154,61541ab0876a2758ac6dc72f,64c7fed44a04f777bb1e18ce,64c800fb31f38f7412500573,up,1,0.75,0.5,-2,0,0.4996,42,0,42,0,1,,,,,,,,,,
,,841126,001,2023-07-31_20h44.28.493,arm3_eps,2022.2.5,Win32,60.00960154,61541ab0876a2758ac6dc72f,64c7fed44a04f777bb1e18ce,64c800fb31f38f7412500573,down,-1,0.75,0.5,-3,0,0.0012,43,0,43,0,1,,,,,,,,,,
,,841126,001,2023-07-31_20h44.28.493,arm3_eps,2022.2.5,Win32,60.00960154,61541ab0876a2758ac6dc72f,64c7fed44a04f777bb1e18ce,64c800fb31f38f7412500573,down,-1,0.75,0.5,-2,0,1.4653,44,0,44,0,1,,,,,,,,,,
,,841126,001,2023-07-31_20h44.28.493,arm3_eps,2022.2.5,Win32,60.00960154,61541ab0876a2758ac6dc72f,64c7fed44a04f777bb1e18ce,64c800fb31f38f7412500573,down,-1,0.75,0.5,-1,0,1.4319,45,0,45,0,1,,,,,,,,,,
,,841126,001,2023-07-31_20h44.28.493,arm3_eps,2022.2.5,Win32,60.00960154,61541ab0876a2758ac6dc72f,64c7fed44a04f777bb1e18ce,64c800fb31f38f7412500573,down,1,0.75,0.5,0,0,1.1311,46,0,46,0,1,,,,,,,,,,
,,841126,001,2023-07-31_20h44.28.493,arm3_eps,2022.2.5,Win32,60.00960154,61541ab0876a2758ac6dc72f,64c7fed44a04f777bb1e18ce,64c800fb31f38f7412500573,down,-1,0.75,0.5,0,0,1.131,47,0,47,0,1,,,,,,,,,,
,,841126,001,2023-07-31_20h44.28.493,arm3_eps,2022.2.5,Win32,60.00960154,61541ab0876a2758ac6dc72f,64c7fed44a04f777bb1e18ce,64c800fb31f38f7412500573,right,-1,0.75,0.5,0,-0.00880804,0.8429,48,0,48,0,1,,,,,,,,,,
,,841126,001,2023-07-31_20h44.28.493,arm3_eps,2022.2.5,Win32,60.00960154,61541ab0876a2758ac6dc72f,64c7fed44a04f777bb1e18ce,64c800fb31f38f7412500573,down,-1,0.75,0.5,0,-0.00880804,0.5681,49,0,49,0,1,,,,,,,,,,
space,3.5173,841126,001,2023-07-31_20h44.28.493,arm3_eps,2022.2.5,Win32,60.00960154,61541ab0876a2758ac6dc72f,64c7fed44a04f777bb1e18ce,64c800fb31f38f7412500573,,,,,,,,,,,,,,,,,,,,,,
space,4.897,841126,001,2023-07-31_20h44.28.493,arm3_eps,2022.2.5,Win32,60.00960154,61541ab0876a2758ac6dc72f,64c7fed44a04f777bb1e18ce,64c800fb31f38f7412500573,right,-1,0.75,0.2429,0,-0.015919056,2.5275,,,,,,0,0,0,0,1,,,,,
,,841126,001,2023-07-31_20h44.28.493,arm3_eps,2022.2.5,Win32,60.00960154,61541ab0876a2758ac6dc72f,64c7fed44a04f777bb1e18ce,64c800fb31f38f7412500573,down,1,0.75,0.2429,1,0,1.8132,,,,,,1,0,1,0,1,,,,,
,,841126,001,2023-07-31_20h44.28.493,arm3_eps,2022.2.5,Win32,60.00960154,61541ab0876a2758ac6dc72f,64c7fed44a04f777bb1e18ce,64c800fb31f38f7412500573,up,1,0.75,0.2429,1,0,2.1955,,,,,,2,0,2,0,1,,,,,
,,841126,001,2023-07-31_20h44.28.493,arm3_eps,2022.2.5,Win32,60.00960154,61541ab0876a2758ac6dc72f,64c7fed44a04f777bb1e18ce,64c800fb31f38f7412500573,up,1,0.75,0.2429,2,0,1.1593,,,,,,3,0,3,0,1,,,,,
,,841126,001,2023-07-31_20h44.28.493,arm3_eps,2022.2.5,Win32,60.00960154,61541ab0876a2758ac6dc72f,64c7fed44a04f777bb1e18ce,64c800fb31f38f7412500573,right,1,0.75,0.2429,2,-0.004776173,1.0299,,,,,,4,0,4,0,1,,,,,
,,841126,001,2023-07-31_20h44.28.493,arm3_eps,2022.2.5,Win32,60.00960154,61541ab0876a2758ac6dc72f,64c7fed44a04f777bb1e18ce,64c800fb31f38f7412500573,right,1,0.75,0.2429,2,-0.006318805,0.8331,,,,,,5,0,5,0,1,,,,,
,,841126,001,2023-07-31_20h44.28.493,arm3_eps,2022.2.5,Win32,60.00960154,61541ab0876a2758ac6dc72f,64c7fed44a04f777bb1e18ce,64c800fb31f38f7412500573,up,1,0.75,0.2429,2,0,0.5165,,,,,,6,0,6,0,1,,,,,
,,841126,001,2023-07-31_20h44.28.493,arm3_eps,2022.2.5,Win32,60.00960154,61541ab0876a2758ac6dc72f,64c7fed44a04f777bb1e18ce,64c800fb31f38f7412500573,up,1,0.75,0.2429,2,0,1.9154,,,,,,7,0,7,0,1,,,,,
,,841126,001,2023-07-31_20h44.28.493,arm3_eps,2022.2.5,Win32,60.00960154,61541ab0876a2758ac6dc72f,64c7fed44a04f777bb1e18ce,64c800fb31f38f7412500573,down,1,0.75,0.2429,1,0,1.1097,,,,,,8,0,8,0,1,,,,,
,,841126,001,2023-07-31_20h44.28.493,arm3_eps,2022.2.5,Win32,60.00960154,61541ab0876a2758ac6dc72f,64c7fed44a04f777bb1e18ce,64c800fb31f38f7412500573,right,1,0.75,0.2429,1,-0.002102164,0.9994,,,,,,9,0,9,0,1,,,,,
,,841126,001,2023-07-31_20h44.28.493,arm3_eps,2022.2.5,Win32,60.00960154,61541ab0876a2758ac6dc72f,64c7fed44a04f777bb1e18ce,64c800fb31f38f7412500573,right,1,0.75,0.2429,1,0.002922997,0.4589,,,,,,10,0,10,0,1,,,,,
,,841126,001,2023-07-31_20h44.28.493,arm3_eps,2022.2.5,Win32,60.00960154,61541ab0876a2758ac6dc72f,64c7fed44a04f777bb1e18ce,64c800fb31f38f7412500573,right,1,0.75,0.2429,1,0.006677093,0.3343,,,,,,11,0,11,0,1,,,,,
,,841126,001,2023-07-31_20h44.28.493,arm3_eps,2022.2.5,Win32,60.00960154,61541ab0876a2758ac6dc72f,64c7fed44a04f777bb1e18ce,64c800fb31f38f7412500573,up,-1,0.75,0.2429,2,0,0.4484,,,,,,12,0,12,0,1,,,,,
,,841126,001,2023-07-31_20h44.28.493,arm3_eps,2022.2.5,Win32,60.00960154,61541ab0876a2758ac6dc72f,64c7fed44a04f777bb1e18ce,64c800fb31f38f7412500573,down,-1,0.75,0.2429,3,0,1.0319,,,,,,13,0,13,0,1,,,,,
,,841126,001,2023-07-31_20h44.28.493,arm3_eps,2022.2.5,Win32,60.00960154,61541ab0876a2758ac6dc72f,64c7fed44a04f777bb1e18ce,64c800fb31f38f7412500573,up,1,0.75,0.2429,2,0,1.06,,,,,,14,0,14,0,1,,,,,
,,841126,001,2023-07-31_20h44.28.493,arm3_eps,2022.2.5,Win32,60.00960154,61541ab0876a2758ac6dc72f,64c7fed44a04f777bb1e18ce,64c800fb31f38f7412500573,right,1,0.75,0.2429,2,-0.003971557,1.1022,,,,,,15,0,15,0,1,,,,,
,,841126,001,2023-07-31_20h44.28.493,arm3_eps,2022.2.5,Win32,60.00960154,61541ab0876a2758ac6dc72f,64c7fed44a04f777bb1e18ce,64c800fb31f38f7412500573,right,1,0.75,0.2429,2,-0.001900409,0.7509,,,,,,16,0,16,0,1,,,,,
,,841126,001,2023-07-31_20h44.28.493,arm3_eps,2022.2.5,Win32,60.00960154,61541ab0876a2758ac6dc72f,64c7fed44a04f777bb1e18ce,64c800fb31f38f7412500573,up,1,0.75,0.2429,3,0,0.3951,,,,,,17,0,17,0,1,,,,,
,,841126,001,2023-07-31_20h44.28.493,arm3_eps,2022.2.5,Win32,60.00960154,61541ab0876a2758ac6dc72f,64c7fed44a04f777bb1e18ce,64c800fb31f38f7412500573,right,1,0.75,0.2429,3,0.033351954,1.1808,,,,,,18,0,18,0,1,,,,,
,,841126,001,2023-07-31_20h44.28.493,arm3_eps,2022.2.5,Win32,60.00960154,61541ab0876a2758ac6dc72f,64c7fed44a04f777bb1e18ce,64c800fb31f38f7412500573,right,1,0.75,0.2429,3,0.020392648,3.8671,,,,,,19,0,19,0,1,,,,,
,,841126,001,2023-07-31_20h44.28.493,arm3_eps,2022.2.5,Win32,60.00960154,61541ab0876a2758ac6dc72f,64c7fed44a04f777bb1e18ce,64c800fb31f38f7412500573,up,1,0.75,0.2429,4,0,0.8339,,,,,,20,0,20,0,1,,,,,
,,841126,001,2023-07-31_20h44.28.493,arm3_eps,2022.2.5,Win32,60.00960154,61541ab0876a2758ac6dc72f,64c7fed44a04f777bb1e18ce,64c800fb31f38f7412500573,up,1,0.75,0.2429,5,0,1.7965,,,,,,21,0,21,0,1,,,,,
,,841126,001,2023-07-31_20h44.28.493,arm3_eps,2022.2.5,Win32,60.00960154,61541ab0876a2758ac6dc72f,64c7fed44a04f777bb1e18ce,64c800fb31f38f7412500573,up,-1,0.75,0.2429,6,0,1.126,,,,,,22,0,22,0,1,,,,,
,,841126,001,2023-07-31_20h44.28.493,arm3_eps,2022.2.5,Win32,60.00960154,61541ab0876a2758ac6dc72f,64c7fed44a04f777bb1e18ce,64c800fb31f38f7412500573,up,-1,0.75,0.2429,5,0,1.0137,,,,,,23,0,23,0,1,,,,,
,,841126,001,2023-07-31_20h44.28.493,arm3_eps,2022.2.5,Win32,60.00960154,61541ab0876a2758ac6dc72f,64c7fed44a04f777bb1e18ce,64c800fb31f38f7412500573,down,-1,0.75,0.2429,6,0,0.9493,,,,,,24,0,24,0,1,,,,,
,,841126,001,2023-07-31_20h44.28.493,arm3_eps,2022.2.5,Win32,60.00960154,61541ab0876a2758ac6dc72f,64c7fed44a04f777bb1e18ce,64c800fb31f38f7412500573,down,-1,0.75,0.2429,7,0,0.9646,,,,,,25,0,25,0,1,,,,,
,,841126,001,2023-07-31_20h44.28.493,arm3_eps,2022.2.5,Win32,60.00960154,61541ab0876a2758ac6dc72f,64c7fed44a04f777bb1e18ce,64c800fb31f38f7412500573,down,-1,0.75,0.2429,7,0,0.8254,,,,,,26,0,26,0,1,,,,,
,,841126,001,2023-07-31_20h44.28.493,arm3_eps,2022.2.5,Win32,60.00960154,61541ab0876a2758ac6dc72f,64c7fed44a04f777bb1e18ce,64c800fb31f38f7412500573,up,-1,0.75,0.2429,6,0,1.7151,,,,,,27,0,27,0,1,,,,,
,,841126,001,2023-07-31_20h44.28.493,arm3_eps,2022.2.5,Win32,60.00960154,61541ab0876a2758ac6dc72f,64c7fed44a04f777bb1e18ce,64c800fb31f38f7412500573,right,-1,0.75,0.2429,6,-0.012874937,0.9787,,,,,,28,0,28,0,1,,,,,
,,841126,001,2023-07-31_20h44.28.493,arm3_eps,2022.2.5,Win32,60.00960154,61541ab0876a2758ac6dc72f,64c7fed44a04f777bb1e18ce,64c800fb31f38f7412500573,down,-1,0.75,0.2429,7,0,0.6673,,,,,,29,0,29,0,1,,,,,
,,841126,001,2023-07-31_20h44.28.493,arm3_eps,2022.2.5,Win32,60.00960154,61541ab0876a2758ac6dc72f,64c7fed44a04f777bb1e18ce,64c800fb31f38f7412500573,right,-1,0.75,0.2429,7,-0.000324111,0.9577,,,,,,30,0,30,0,1,,,,,
,,841126,001,2023-07-31_20h44.28.493,arm3_eps,2022.2.5,Win32,60.00960154,61541ab0876a2758ac6dc72f,64c7fed44a04f777bb1e18ce,64c800fb31f38f7412500573,right,-1,0.75,0.2429,7,0.003822438,0.4603,,,,,,31,0,31,0,1,,,,,
,,841126,001,2023-07-31_20h44.28.493,arm3_eps,2022.2.5,Win32,60.00960154,61541ab0876a2758ac6dc72f,64c7fed44a04f777bb1e18ce,64c800fb31f38f7412500573,down,-1,0.75,0.2429,8,0,0.5416,,,,,,32,0,32,0,1,,,,,
,,841126,001,2023-07-31_20h44.28.493,arm3_eps,2022.2.5,Win32,60.00960154,61541ab0876a2758ac6dc72f,64c7fed44a04f777bb1e18ce,64c800fb31f38f7412500573,down,-1,0.75,0.2429,9,0,3.3518,,,,,,33,0,33,0,1,,,,,
,,841126,001,2023-07-31_20h44.28.493,arm3_eps,2022.2.5,Win32,60.00960154,61541ab0876a2758ac6dc72f,64c7fed44a04f777bb1e18ce,64c800fb31f38f7412500573,down,1,0.75,0.2429,9,0,1.1581,,,,,,34,0,34,0,1,,,,,
,,841126,001,2023-07-31_20h44.28.493,arm3_eps,2022.2.5,Win32,60.00960154,61541ab0876a2758ac6dc72f,64c7fed44a04f777bb1e18ce,64c800fb31f38f7412500573,up,1,0.75,0.2429,10,0,1.7681,,,,,,35,0,35,0,1,,,,,
,,841126,001,2023-07-31_20h44.28.493,arm3_eps,2022.2.5,Win32,60.00960154,61541ab0876a2758ac6dc72f,64c7fed44a04f777bb1e18ce,64c800fb31f38f7412500573,up,1,0.75,0.2429,11,0,1.0306,,,,,,36,0,36,0,1,,,,,
,,841126,001,2023-07-31_20h44.28.493,arm3_eps,2022.2.5,Win32,60.00960154,61541ab0876a2758ac6dc72f,64c7fed44a04f777bb1e18ce,64c800fb31f38f7412500573,up,1,0.75,0.2429,12,0,1.2118,,,,,,37,0,37,0,1,,,,,
,,841126,001,2023-07-31_20h44.28.493,arm3_eps,2022.2.5,Win32,60.00960154,61541ab0876a2758ac6dc72f,64c7fed44a04f777bb1e18ce,64c800fb31f38f7412500573,right,1,0.75,0.2429,12,0.002424165,1.657,,,,,,38,0,38,0,1,,,,,
,,841126,001,2023-07-31_20h44.28.493,arm3_eps,2022.2.5,Win32,60.00960154,61541ab0876a2758ac6dc72f,64c7fed44a04f777bb1e18ce,64c800fb31f38f7412500573,up,1,0.75,0.2429,12,0,0.4009,,,,,,39,0,39,0,1,,,,,
,,841126,001,2023-07-31_20h44.28.493,arm3_eps,2022.2.5,Win32,60.00960154,61541ab0876a2758ac6dc72f,64c7fed44a04f777bb1e18ce,64c800fb31f38f7412500573,up,1,0.75,0.2429,13,0,1.0011,,,,,,40,0,40,0,1,,,,,
,,841126,001,2023-07-31_20h44.28.493,arm3_eps,2022.2.5,Win32,60.00960154,61541ab0876a2758ac6dc72f,64c7fed44a04f777bb1e18ce,64c800fb31f38f7412500573,up,1,0.75,0.2429,14,0,1.2356,,,,,,41,0,41,0,1,,,,,
,,841126,001,2023-07-31_20h44.28.493,arm3_eps,2022.2.5,Win32,60.00960154,61541ab0876a2758ac6dc72f,64c7fed44a04f777bb1e18ce,64c800fb31f38f7412500573,right,1,0.75,0.2429,14,-0.021298934,1.7119,,,,,,42,0,42,0,1,,,,,
,,841126,001,2023-07-31_20h44.28.493,arm3_eps,2022.2.5,Win32,60.00960154,61541ab0876a2758ac6dc72f,64c7fed44a04f777bb1e18ce,64c800fb31f38f7412500573,down,1,0.75,0.2429,13,0,0.651,,,,,,43,0,43,0,1,,,,,
,,841126,001,2023-07-31_20h44.28.493,arm3_eps,2022.2.5,Win32,60.00960154,61541ab0876a2758ac6dc72f,64c7fed44a04f777bb1e18ce,64c800fb31f38f7412500573,down,1,0.75,0.2429,13,0,1.4087,,,,,,44,0,44,0,1,,,,,
,,841126,001,2023-07-31_20h44.28.493,arm3_eps,2022.2.5,Win32,60.00960154,61541ab0876a2758ac6dc72f,64c7fed44a04f777bb1e18ce,64c800fb31f38f7412500573,up,1,0.75,0.2429,14,0,0.8734,,,,,,45,0,45,0,1,,,,,
,,841126,001,2023-07-31_20h44.28.493,arm3_eps,2022.2.5,Win32,60.00960154,61541ab0876a2758ac6dc72f,64c7fed44a04f777bb1e18ce,64c800fb31f38f7412500573,right,1,0.75,0.2429,14,-0.001547229,1.8609,,,,,,46,0,46,0,1,,,,,
,,841126,001,2023-07-31_20h44.28.493,arm3_eps,2022.2.5,Win32,60.00960154,61541ab0876a2758ac6dc72f,64c7fed44a04f777bb1e18ce,64c800fb31f38f7412500573,down,1,0.75,0.2429,13,0,0.8341,,,,,,47,0,47,0,1,,,,,
,,841126,001,2023-07-31_20h44.28.493,arm3_eps,2022.2.5,Win32,60.00960154,61541ab0876a2758ac6dc72f,64c7fed44a04f777bb1e18ce,64c800fb31f38f7412500573,right,1,0.75,0.2429,13,-0.026130334,1.7711,,,,,,48,0,48,0,1,,,,,
,,841126,001,2023-07-31_20h44.28.493,arm3_eps,2022.2.5,Win32,60.00960154,61541ab0876a2758ac6dc72f,64c7fed44a04f777bb1e18ce,64c800fb31f38f7412500573,right,1,0.75,0.2429,13,-0.028049622,0.708,,,,,,49,0,49,0,1,,,,,
,,841126,001,2023-07-31_20h44.28.493,arm3_eps,2022.2.5,Win32,60.00960154,61541ab0876a2758ac6dc72f,64c7fed44a04f777bb1e18ce,64c800fb31f38f7412500573,up,1,0.75,0.2429,13,0,0.4672,,,,,,50,0,50,0,1,,,,,
,,841126,001,2023-07-31_20h44.28.493,arm3_eps,2022.2.5,Win32,60.00960154,61541ab0876a2758ac6dc72f,64c7fed44a04f777bb1e18ce,64c800fb31f38f7412500573,right,1,0.75,0.2429,13,-0.000959769,1.8257,,,,,,51,0,51,0,1,,,,,
,,841126,001,2023-07-31_20h44.28.493,arm3_eps,2022.2.5,Win32,60.00960154,61541ab0876a2758ac6dc72f,64c7fed44a04f777bb1e18ce,64c800fb31f38f7412500573,up,-1,0.75,0.2429,14,0,0.6704,,,,,,52,0,52,0,1,,,,,
,,841126,001,2023-07-31_20h44.28.493,arm3_eps,2022.2.5,Win32,60.00960154,61541ab0876a2758ac6dc72f,64c7fed44a04f777bb1e18ce,64c800fb31f38f7412500573,up,-1,0.75,0.2429,13,0,3.7038,,,,,,53,0,53,0,1,,,,,
,,841126,001,2023-07-31_20h44.28.493,arm3_eps,2022.2.5,Win32,60.00960154,61541ab0876a2758ac6dc72f,64c7fed44a04f777bb1e18ce,64c800fb31f38f7412500573,up,-1,0.75,0.2429,12,0,1.6346,,,,,,54,0,54,0,1,,,,,
,,841126,001,2023-07-31_20h44.28.493,arm3_eps,2022.2.5,Win32,60.00960154,61541ab0876a2758ac6dc72f,64c7fed44a04f777bb1e18ce,64c800fb31f38f7412500573,up,-1,0.75,0.2429,12,0,2.0996,,,,,,55,0,55,0,1,,,,,
,,841126,001,2023-07-31_20h44.28.493,arm3_eps,2022.2.5,Win32,60.00960154,61541ab0876a2758ac6dc72f,64c7fed44a04f777bb1e18ce,64c800fb31f38f7412500573,down,-1,0.75,0.2429,13,0,0.91,,,,,,56,0,56,0,1,,,,,
,,841126,001,2023-07-31_20h44.28.493,arm3_eps,2022.2.5,Win32,60.00960154,61541ab0876a2758ac6dc72f,64c7fed44a04f777bb1e18ce,64c800fb31f38f7412500573,right,-1,0.75,0.2429,13,0.005724047,2.0672,,,,,,57,0,57,0,1,,,,,
,,841126,001,2023-07-31_20h44.28.493,arm3_eps,2022.2.5,Win32,60.00960154,61541ab0876a2758ac6dc72f,64c7fed44a04f777bb1e18ce,64c800fb31f38f7412500573,right,-1,0.75,0.2429,13,-0.011781733,0.501,,,,,,58,0,58,0,1,,,,,
,,841126,001,2023-07-31_20h44.28.493,arm3_eps,2022.2.5,Win32,60.00960154,61541ab0876a2758ac6dc72f,64c7fed44a04f777bb1e18ce,64c800fb31f38f7412500573,right,-1,0.75,0.2429,13,-0.019681511,0.3683,,,,,,59,0,59,0,1,,,,,
,,841126,001,2023-07-31_20h44.28.493,arm3_eps,2022.2.5,Win32,60.00960154,61541ab0876a2758ac6dc72f,64c7fed44a04f777bb1e18ce,64c800fb31f38f7412500573,down,-1,0.75,0.2429,14,0,0.8401,,,,,,60,0,60,0,1,,,,,
,,841126,001,2023-07-31_20h44.28.493,arm3_eps,2022.2.5,Win32,60.00960154,61541ab0876a2758ac6dc72f,64c7fed44a04f777bb1e18ce,64c800fb31f38f7412500573,right,-1,0.75,0.2429,14,-0.010362775,0.9467,,,,,,61,0,61,0,1,,,,,
,,841126,001,2023-07-31_20h44.28.493,arm3_eps,2022.2.5,Win32,60.00960154,61541ab0876a2758ac6dc72f,64c7fed44a04f777bb1e18ce,64c800fb31f38f7412500573,down,-1,0.75,0.2429,15,0,0.534,,,,,,62,0,62,0,1,,,,,
,,841126,001,2023-07-31_20h44.28.493,arm3_eps,2022.2.5,Win32,60.00960154,61541ab0876a2758ac6dc72f,64c7fed44a04f777bb1e18ce,64c800fb31f38f7412500573,right,-1,0.75,0.2429,15,-0.006527698,0.5595,,,,,,63,0,63,0,1,,,,,
,,841126,001,2023-07-31_20h44.28.493,arm3_eps,2022.2.5,Win32,60.00960154,61541ab0876a2758ac6dc72f,64c7fed44a04f777bb1e18ce,64c800fb31f38f7412500573,down,1,0.75,0.2429,16,0,0.3997,,,,,,64,0,64,0,1,,,,,
,,841126,001,2023-07-31_20h44.28.493,arm3_eps,2022.2.5,Win32,60.00960154,61541ab0876a2758ac6dc72f,64c7fed44a04f777bb1e18ce,64c800fb31f38f7412500573,up,-1,0.75,0.2429,17,0,1.4208,,,,,,65,0,65,0,1,,,,,
,,841126,001,2023-07-31_20h44.28.493,arm3_eps,2022.2.5,Win32,60.00960154,61541ab0876a2758ac6dc72f,64c7fed44a04f777bb1e18ce,64c800fb31f38f7412500573,down,-1,0.75,0.2429,18,0,1.2132,,,,,,66,0,66,0,1,,,,,
,,841126,001,2023-07-31_20h44.28.493,arm3_eps,2022.2.5,Win32,60.00960154,61541ab0876a2758ac6dc72f,64c7fed44a04f777bb1e18ce,64c800fb31f38f7412500573,down,-1,0.75,0.2429,18,0,1.0899,,,,,,67,0,67,0,1,,,,,
,,841126,001,2023-07-31_20h44.28.493,arm3_eps,2022.2.5,Win32,60.00960154,61541ab0876a2758ac6dc72f,64c7fed44a04f777bb1e18ce,64c800fb31f38f7412500573,up,-1,0.75,0.2429,17,0,1.1896,,,,,,68,0,68,0,1,,,,,
,,841126,001,2023-07-31_20h44.28.493,arm3_eps,2022.2.5,Win32,60.00960154,61541ab0876a2758ac6dc72f,64c7fed44a04f777bb1e18ce,64c800fb31f38f7412500573,up,-1,0.75,0.2429,16,0,1.4313,,,,,,69,0,69,0,1,,,,,
,,841126,001,2023-07-31_20h44.28.493,arm3_eps,2022.2.5,Win32,60.00960154,61541ab0876a2758ac6dc72f,64c7fed44a04f777bb1e18ce,64c800fb31f38f7412500573,down,1,0.75,0.2429,17,0,1.1328,,,,,,70,0,70,0,1,,,,,
,,841126,001,2023-07-31_20h44.28.493,arm3_eps,2022.2.5,Win32,60.00960154,61541ab0876a2758ac6dc72f,64c7fed44a04f777bb1e18ce,64c800fb31f38f7412500573,right,1,0.75,0.2429,17,0.002080579,2.3094,,,,,,71,0,71,0,1,,,,,
,,841126,001,2023-07-31_20h44.28.493,arm3_eps,2022.2.5,Win32,60.00960154,61541ab0876a2758ac6dc72f,64c7fed44a04f777bb1e18ce,64c800fb31f38f7412500573,right,1,0.75,0.2429,17,0.009058809,0.4751,,,,,,72,0,72,0,1,,,,,
,,841126,001,2023-07-31_20h44.28.493,arm3_eps,2022.2.5,Win32,60.00960154,61541ab0876a2758ac6dc72f,64c7fed44a04f777bb1e18ce,64c800fb31f38f7412500573,down,1,0.75,0.2429,16,0,2.0433,,,,,,73,0,73,0,1,,,,,
,,841126,001,2023-07-31_20h44.28.493,arm3_eps,2022.2.5,Win32,60.00960154,61541ab0876a2758ac6dc72f,64c7fed44a04f777bb1e18ce,64c800fb31f38f7412500573,up,1,0.75,0.2429,17,0,1.2325,,,,,,74,0,74,0,1,,,,,
,,841126,001,2023-07-31_20h44.28.493,arm3_eps,2022.2.5,Win32,60.00960154,61541ab0876a2758ac6dc72f,64c7fed44a04f777bb1e18ce,64c800fb31f38f7412500573,up,1,0.75,0.2429,18,0,0.9572,,,,,,75,0,75,0,1,,,,,
,,841126,001,2023-07-31_20h44.28.493,arm3_eps,2022.2.5,Win32,60.00960154,61541ab0876a2758ac6dc72f,64c7fed44a04f777bb1e18ce,64c800fb31f38f7412500573,up,1,0.75,0.2429,18,0,0.9618,,,,,,76,0,76,0,1,,,,,
,,841126,001,2023-07-31_20h44.28.493,arm3_eps,2022.2.5,Win32,60.00960154,61541ab0876a2758ac6dc72f,64c7fed44a04f777bb1e18ce,64c800fb31f38f7412500573,up,1,0.75,0.2429,19,0,1.3699,,,,,,77,0,77,0,1,,,,,
,,841126,001,2023-07-31_20h44.28.493,arm3_eps,2022.2.5,Win32,60.00960154,61541ab0876a2758ac6dc72f,64c7fed44a04f777bb1e18ce,64c800fb31f38f7412500573,down,1,0.75,0.2429,19,0,1.5657,,,,,,78,0,78,0,1,,,,,
,,841126,001,2023-07-31_20h44.28.493,arm3_eps,2022.2.5,Win32,60.00960154,61541ab0876a2758ac6dc72f,64c7fed44a04f777bb1e18ce,64c800fb31f38f7412500573,right,1,0.75,0.2429,19,0.002613232,1.6165,,,,,,79,0,79,0,1,,,,,
,,841126,001,2023-07-31_20h44.28.493,arm3_eps,2022.2.5,Win32,60.00960154,61541ab0876a2758ac6dc72f,64c7fed44a04f777bb1e18ce,64c800fb31f38f7412500573,right,1,0.75,0.2429,19,-0.005777878,0.4931,,,,,,80,0,80,0,1,,,,,
,,841126,001,2023-07-31_20h44.28.493,arm3_eps,2022.2.5,Win32,60.00960154,61541ab0876a2758ac6dc72f,64c7fed44a04f777bb1e18ce,64c800fb31f38f7412500573,up,1,0.75,0.2429,19,0,0.617,,,,,,81,0,81,0,1,,,,,
,,841126,001,2023-07-31_20h44.28.493,arm3_eps,2022.2.5,Win32,60.00960154,61541ab0876a2758ac6dc72f,64c7fed44a04f777bb1e18ce,64c800fb31f38f7412500573,right,1,0.75,0.2429,19,0.000113733,1.1986,,,,,,82,0,82,0,1,,,,,
,,841126,001,2023-07-31_20h44.28.493,arm3_eps,2022.2.5,Win32,60.00960154,61541ab0876a2758ac6dc72f,64c7fed44a04f777bb1e18ce,64c800fb31f38f7412500573,down,1,0.75,0.2429,19,0,0.5353,,,,,,83,0,83,0,1,,,,,
,,841126,001,2023-07-31_20h44.28.493,arm3_eps,2022.2.5,Win32,60.00960154,61541ab0876a2758ac6dc72f,64c7fed44a04f777bb1e18ce,64c800fb31f38f7412500573,right,1,0.75,0.2429,19,0.014504541,0.7144,,,,,,84,0,84,0,1,,,,,
,,841126,001,2023-07-31_20h44.28.493,arm3_eps,2022.2.5,Win32,60.00960154,61541ab0876a2758ac6dc72f,64c7fed44a04f777bb1e18ce,64c800fb31f38f7412500573,down,1,0.75,0.2429,19,0,0.5342,,,,,,85,0,85,0,1,,,,,
,,841126,001,2023-07-31_20h44.28.493,arm3_eps,2022.2.5,Win32,60.00960154,61541ab0876a2758ac6dc72f,64c7fed44a04f777bb1e18ce,64c800fb31f38f7412500573,right,1,0.75,0.2429,19,-0.001435593,1.0429,,,,,,86,0,86,0,1,,,,,
,,841126,001,2023-07-31_20h44.28.493,arm3_eps,2022.2.5,Win32,60.00960154,61541ab0876a2758ac6dc72f,64c7fed44a04f777bb1e18ce,64c800fb31f38f7412500573,right,1,0.75,0.2429,19,-0.000793633,0.5007,,,,,,87,0,87,0,1,,,,,
,,841126,001,2023-07-31_20h44.28.493,arm3_eps,2022.2.5,Win32,60.00960154,61541ab0876a2758ac6dc72f,64c7fed44a04f777bb1e18ce,64c800fb31f38f7412500573,up,-1,0.75,0.2429,20,0,0.55,,,,,,88,0,88,0,1,,,,,
,,841126,001,2023-07-31_20h44.28.493,arm3_eps,2022.2.5,Win32,60.00960154,61541ab0876a2758ac6dc72f,64c7fed44a04f777bb1e18ce,64c800fb31f38f7412500573,down,-1,0.75,0.2429,21,0,9.0647,,,,,,89,0,89,0,1,,,,,
,,841126,001,2023-07-31_20h44.28.493,arm3_eps,2022.2.5,Win32,60.00960154,61541ab0876a2758ac6dc72f,64c7fed44a04f777bb1e18ce,64c800fb31f38f7412500573,down,-1,0.75,0.2429,22,0,1.2499,,,,,,90,0,90,0,1,,,,,
,,841126,001,2023-07-31_20h44.28.493,arm3_eps,2022.2.5,Win32,60.00960154,61541ab0876a2758ac6dc72f,64c7fed44a04f777bb1e18ce,64c800fb31f38f7412500573,down,-1,0.75,0.2429,23,0,1.4139,,,,,,91,0,91,0,1,,,,,
,,841126,001,2023-07-31_20h44.28.493,arm3_eps,2022.2.5,Win32,60.00960154,61541ab0876a2758ac6dc72f,64c7fed44a04f777bb1e18ce,64c800fb31f38f7412500573,down,-1,0.75,0.2429,23,0,1.2052,,,,,,92,0,92,0,1,,,,,
,,841126,001,2023-07-31_20h44.28.493,arm3_eps,2022.2.5,Win32,60.00960154,61541ab0876a2758ac6dc72f,64c7fed44a04f777bb1e18ce,64c800fb31f38f7412500573,right,-1,0.75,0.2429,23,0.015143295,1.7968,,,,,,93,0,93,0,1,,,,,
,,841126,001,2023-07-31_20h44.28.493,arm3_eps,2022.2.5,Win32,60.00960154,61541ab0876a2758ac6dc72f,64c7fed44a04f777bb1e18ce,64c800fb31f38f7412500573,right,-1,0.75,0.2429,23,0.011230564,0.527,,,,,,94,0,94,0,1,,,,,
,,841126,001,2023-07-31_20h44.28.493,arm3_eps,2022.2.5,Win32,60.00960154,61541ab0876a2758ac6dc72f,64c7fed44a04f777bb1e18ce,64c800fb31f38f7412500573,right,-1,0.75,0.2429,23,0.002608895,0.4277,,,,,,95,0,95,0,1,,,,,
,,841126,001,2023-07-31_20h44.28.493,arm3_eps,2022.2.5,Win32,60.00960154,61541ab0876a2758ac6dc72f,64c7fed44a04f777bb1e18ce,64c800fb31f38f7412500573,up,-1,0.75,0.2429,22,0,0.6505,,,,,,96,0,96,0,1,,,,,
,,841126,001,2023-07-31_20h44.28.493,arm3_eps,2022.2.5,Win32,60.00960154,61541ab0876a2758ac6dc72f,64c7fed44a04f777bb1e18ce,64c800fb31f38f7412500573,down,-1,0.75,0.2429,23,0,1.3697,,,,,,97,0,97,0,1,,,,,
,,841126,001,2023-07-31_20h44.28.493,arm3_eps,2022.2.5,Win32,60.00960154,61541ab0876a2758ac6dc72f,64c7fed44a04f777bb1e18ce,64c800fb31f38f7412500573,down,-1,0.75,0.2429,23,0,1.1623,,,,,,98,0,98,0,1,,,,,
,,841126,001,2023-07-31_20h44.28.493,arm3_eps,2022.2.5,Win32,60.00960154,61541ab0876a2758ac6dc72f,64c7fed44a04f777bb1e18ce,64c800fb31f38f7412500573,up,-1,0.75,0.2429,22,0,1.1527,,,,,,99,0,99,0,1,,,,,
,,841126,001,2023-07-31_20h44.28.493,arm3_eps,2022.2.5,Win32,60.00960154,61541ab0876a2758ac6dc72f,64c7fed44a04f777bb1e18ce,64c800fb31f38f7412500573,right,-1,0.75,0.2429,22,-0.012799534,2.1663,,,,,,100,0,100,0,1,,,,,
,,841126,001,2023-07-31_20h44.28.493,arm3_eps,2022.2.5,Win32,60.00960154,61541ab0876a2758ac6dc72f,64c7fed44a04f777bb1e18ce,64c800fb31f38f7412500573,right,-1,0.75,0.2429,22,-0.006939562,0.6063,,,,,,101,0,101,0,1,,,,,
,,841126,001,2023-07-31_20h44.28.493,arm3_eps,2022.2.5,Win32,60.00960154,61541ab0876a2758ac6dc72f,64c7fed44a04f777bb1e18ce,64c800fb31f38f7412500573,down,-1,0.75,0.2429,22,0,0.5838,,,,,,102,0,102,0,1,,,,,
,,841126,001,2023-07-31_20h44.28.493,arm3_eps,2022.2.5,Win32,60.00960154,61541ab0876a2758ac6dc72f,64c7fed44a04f777bb1e18ce,64c800fb31f38f7412500573,right,-1,0.75,0.2429,22,-0.006394373,0.8256,,,,,,103,0,103,0,1,,,,,
,,841126,001,2023-07-31_20h44.28.493,arm3_eps,2022.2.5,Win32,60.00960154,61541ab0876a2758ac6dc72f,64c7fed44a04f777bb1e18ce,64c800fb31f38f7412500573,down,-1,0.75,0.2429,23,0,0.4253,,,,,,104,0,104,0,1,,,,,
,,841126,001,2023-07-31_20h44.28.493,arm3_eps,2022.2.5,Win32,60.00960154,61541ab0876a2758ac6dc72f,64c7fed44a04f777bb1e18ce,64c800fb31f38f7412500573,right,-1,0.75,0.2429,23,-0.013491041,1.7483,,,,,,105,0,105,0,1,,,,,
,,841126,001,2023-07-31_20h44.28.493,arm3_eps,2022.2.5,Win32,60.00960154,61541ab0876a2758ac6dc72f,64c7fed44a04f777bb1e18ce,64c800fb31f38f7412500573,down,-1,0.75,0.2429,24,0,0.6493,,,,,,106,0,106,0,1,,,,,
,,841126,001,2023-07-31_20h44.28.493,arm3_eps,2022.2.5,Win32,60.00960154,61541ab0876a2758ac6dc72f,64c7fed44a04f777bb1e18ce,64c800fb31f38f7412500573,up,-1,0.75,0.2429,23,0,1.251,,,,,,107,0,107,0,1,,,,,
,,841126,001,2023-07-31_20h44.28.493,arm3_eps,2022.2.5,Win32,60.00960154,61541ab0876a2758ac6dc72f,64c7fed44a04f777bb1e18ce,64c800fb31f38f7412500573,down,1,0.75,0.2429,23,0,1.4681,,,,,,108,0,108,0,1,,,,,
,,841126,001,2023-07-31_20h44.28.493,arm3_eps,2022.2.5,Win32,60.00960154,61541ab0876a2758ac6dc72f,64c7fed44a04f777bb1e18ce,64c800fb31f38f7412500573,up,1,0.75,0.2429,24,0,0.4269,,,,,,109,0,109,0,1,,,,,
,,841126,001,2023-07-31_20h44.28.493,arm3_eps,2022.2.5,Win32,60.00960154,61541ab0876a2758ac6dc72f,64c7fed44a04f777bb1e18ce,64c800fb31f38f7412500573,up,-1,0.75,0.2429,25,0,1.2642,,,,,,110,0,110,0,1,,,,,
,,841126,001,2023-07-31_20h44.28.493,arm3_eps,2022.2.5,Win32,60.00960154,61541ab0876a2758ac6dc72f,64c7fed44a04f777bb1e18ce,64c800fb31f38f7412500573,up,-1,0.75,0.2429,24,0,1.0839,,,,,,111,0,111,0,1,,,,,
,,841126,001,2023-07-31_20h44.28.493,arm3_eps,2022.2.5,Win32,60.00960154,61541ab0876a2758ac6dc72f,64c7fed44a04f777bb1e18ce,64c800fb31f38f7412500573,up,-1,0.75,0.2429,23,0,1.0815,,,,,,112,0,112,0,1,,,,,
,,841126,001,2023-07-31_20h44.28.493,arm3_eps,2022.2.5,Win32,60.00960154,61541ab0876a2758ac6dc72f,64c7fed44a04f777bb1e18ce,64c800fb31f38f7412500573,down,1,0.75,0.2429,23,0,1.6169,,,,,,113,0,113,0,1,,,,,
,,841126,001,2023-07-31_20h44.28.493,arm3_eps,2022.2.5,Win32,60.00960154,61541ab0876a2758ac6dc72f,64c7fed44a04f777bb1e18ce,64c800fb31f38f7412500573,up,1,0.75,0.2429,24,0,1.2226,,,,,,114,0,114,0,1,,,,,
,,841126,001,2023-07-31_20h44.28.493,arm3_eps,2022.2.5,Win32,60.00960154,61541ab0876a2758ac6dc72f,64c7fed44a04f777bb1e18ce,64c800fb31f38f7412500573,up,1,0.75,0.2429,25,0,1.8761,,,,,,115,0,115,0,1,,,,,
,,841126,001,2023-07-31_20h44.28.493,arm3_eps,2022.2.5,Win32,60.00960154,61541ab0876a2758ac6dc72f,64c7fed44a04f777bb1e18ce,64c800fb31f38f7412500573,up,-1,0.75,0.2429,26,0,1.1071,,,,,,116,0,116,0,1,,,,,
,,841126,001,2023-07-31_20h44.28.493,arm3_eps,2022.2.5,Win32,60.00960154,61541ab0876a2758ac6dc72f,64c7fed44a04f777bb1e18ce,64c800fb31f38f7412500573,down,-1,0.75,0.2429,26,0,1.4714,,,,,,117,0,117,0,1,,,,,
,,841126,001,2023-07-31_20h44.28.493,arm3_eps,2022.2.5,Win32,60.00960154,61541ab0876a2758ac6dc72f,64c7fed44a04f777bb1e18ce,64c800fb31f38f7412500573,up,-1,0.75,0.2429,25,0,1.3077,,,,,,118,0,118,0,1,,,,,
,,841126,001,2023-07-31_20h44.28.493,arm3_eps,2022.2.5,Win32,60.00960154,61541ab0876a2758ac6dc72f,64c7fed44a04f777bb1e18ce,64c800fb31f38f7412500573,up,-1,0.75,0.2429,24,0,1.1548,,,,,,119,0,119,0,1,,,,,
,,841126,001,2023-07-31_20h44.28.493,arm3_eps,2022.2.5,Win32,60.00960154,61541ab0876a2758ac6dc72f,64c7fed44a04f777bb1e18ce,64c800fb31f38f7412500573,up,-1,0.75,0.2429,24,0,1.2631,,,,,,120,0,120,0,1,,,,,
,,841126,001,2023-07-31_20h44.28.493,arm3_eps,2022.2.5,Win32,60.00960154,61541ab0876a2758ac6dc72f,64c7fed44a04f777bb1e18ce,64c800fb31f38f7412500573,down,-1,0.75,0.2429,24,0,1.2643,,,,,,121,0,121,0,1,,,,,
,,841126,001,2023-07-31_20h44.28.493,arm3_eps,2022.2.5,Win32,60.00960154,61541ab0876a2758ac6dc72f,64c7fed44a04f777bb1e18ce,64c800fb31f38f7412500573,right,-1,0.75,0.2429,24,0.000751626,1.715,,,,,,122,0,122,0,1,,,,,
,,841126,001,2023-07-31_20h44.28.493,arm3_eps,2022.2.5,Win32,60.00960154,61541ab0876a2758ac6dc72f,64c7fed44a04f777bb1e18ce,64c800fb31f38f7412500573,down,-1,0.75,0.2429,25,0,0.4583,,,,,,123,0,123,0,1,,,,,
,,841126,001,2023-07-31_20h44.28.493,arm3_eps,2022.2.5,Win32,60.00960154,61541ab0876a2758ac6dc72f,64c7fed44a04f777bb1e18ce,64c800fb31f38f7412500573,right,-1,0.75,0.2429,25,-0.042095328,2.0023,,,,,,124,0,124,0,1,,,,,
,,841126,001,2023-07-31_20h44.28.493,arm3_eps,2022.2.5,Win32,60.00960154,61541ab0876a2758ac6dc72f,64c7fed44a04f777bb1e18ce,64c800fb31f38f7412500573,down,-1,0.75,0.2429,25,0,0.6585,,,,,,125,0,125,0,1,,,,,
,,841126,001,2023-07-31_20h44.28.493,arm3_eps,2022.2.5,Win32,60.00960154,61541ab0876a2758ac6dc72f,64c7fed44a04f777bb1e18ce,64c800fb31f38f7412500573,up,1,0.75,0.2429,25,0,2.1511,,,,,,126,0,126,0,1,,,,,
,,841126,001,2023-07-31_20h44.28.493,arm3_eps,2022.2.5,Win32,60.00960154,61541ab0876a2758ac6dc72f,64c7fed44a04f777bb1e18ce,64c800fb31f38f7412500573,up,1,0.75,0.2429,26,0,1.4636,,,,,,127,0,127,0,1,,,,,
,,841126,001,2023-07-31_20h44.28.493,arm3_eps,2022.2.5,Win32,60.00960154,61541ab0876a2758ac6dc72f,64c7fed44a04f777bb1e18ce,64c800fb31f38f7412500573,down,1,0.75,0.2429,25,0,7.0159,,,,,,128,0,128,0,1,,,,,
,,841126,001,2023-07-31_20h44.28.493,arm3_eps,2022.2.5,Win32,60.00960154,61541ab0876a2758ac6dc72f,64c7fed44a04f777bb1e18ce,64c800fb31f38f7412500573,down,-1,0.75,0.2429,24,0,1.1919,,,,,,129,0,129,0,1,,,,,
,,841126,001,2023-07-31_20h44.28.493,arm3_eps,2022.2.5,Win32,60.00960154,61541ab0876a2758ac6dc72f,64c7fed44a04f777bb1e18ce,64c800fb31f38f7412500573,up,-1,0.75,0.2429,24,0,1.2259,,,,,,130,0,130,0,1,,,,,
,,841126,001,2023-07-31_20h44.28.493,arm3_eps,2022.2.5,Win32,60.00960154,61541ab0876a2758ac6dc72f,64c7fed44a04f777bb1e18ce,64c800fb31f38f7412500573,down,-1,0.75,0.2429,25,0,1.0005,,,,,,131,0,131,0,1,,,,,
,,841126,001,2023-07-31_20h44.28.493,arm3_eps,2022.2.5,Win32,60.00960154,61541ab0876a2758ac6dc72f,64c7fed44a04f777bb1e18ce,64c800fb31f38f7412500573,down,-1,0.75,0.2429,26,0,0.9992,,,,,,132,0,132,0,1,,,,,
,,841126,001,2023-07-31_20h44.28.493,arm3_eps,2022.2.5,Win32,60.00960154,61541ab0876a2758ac6dc72f,64c7fed44a04f777bb1e18ce,64c800fb31f38f7412500573,up,-1,0.75,0.2429,25,0,1.1138,,,,,,133,0,133,0,1,,,,,
,,841126,001,2023-07-31_20h44.28.493,arm3_eps,2022.2.5,Win32,60.00960154,61541ab0876a2758ac6dc72f,64c7fed44a04f777bb1e18ce,64c800fb31f38f7412500573,down,-1,0.75,0.2429,26,0,1.0327,,,,,,134,0,134,0,1,,,,,
,,841126,001,2023-07-31_20h44.28.493,arm3_eps,2022.2.5,Win32,60.00960154,61541ab0876a2758ac6dc72f,64c7fed44a04f777bb1e18ce,64c800fb31f38f7412500573,down,1,0.75,0.2429,27,0,1.3144,,,,,,135,0,135,0,1,,,,,
,,841126,001,2023-07-31_20h44.28.493,arm3_eps,2022.2.5,Win32,60.00960154,61541ab0876a2758ac6dc72f,64c7fed44a04f777bb1e18ce,64c800fb31f38f7412500573,up,1,0.75,0.2429,28,0,2.011,,,,,,136,0,136,0,1,,,,,
,,841126,001,2023-07-31_20h44.28.493,arm3_eps,2022.2.5,Win32,60.00960154,61541ab0876a2758ac6dc72f,64c7fed44a04f777bb1e18ce,64c800fb31f38f7412500573,up,1,0.75,0.2429,28,0,1.1834,,,,,,137,0,137,0,1,,,,,
,,841126,001,2023-07-31_20h44.28.493,arm3_eps,2022.2.5,Win32,60.00960154,61541ab0876a2758ac6dc72f,64c7fed44a04f777bb1e18ce,64c800fb31f38f7412500573,right,1,0.75,0.2429,28,0.006398344,1.5676,,,,,,138,0,138,0,1,,,,,
,,841126,001,2023-07-31_20h44.28.493,arm3_eps,2022.2.5,Win32,60.00960154,61541ab0876a2758ac6dc72f,64c7fed44a04f777bb1e18ce,64c800fb31f38f7412500573,up,1,0.75,0.2429,29,0,0.6247,,,,,,139,0,139,0,1,,,,,
,,841126,001,2023-07-31_20h44.28.493,arm3_eps,2022.2.5,Win32,60.00960154,61541ab0876a2758ac6dc72f,64c7fed44a04f777bb1e18ce,64c800fb31f38f7412500573,right,1,0.75,0.2429,29,-0.013108322,1.4324,,,,,,140,0,140,0,1,,,,,
,,841126,001,2023-07-31_20h44.28.493,arm3_eps,2022.2.5,Win32,60.00960154,61541ab0876a2758ac6dc72f,64c7fed44a04f777bb1e18ce,64c800fb31f38f7412500573,right,1,0.75,0.2429,29,-0.001144032,0.7097,,,,,,141,0,141,0,1,,,,,
,,841126,001,2023-07-31_20h44.28.493,arm3_eps,2022.2.5,Win32,60.00960154,61541ab0876a2758ac6dc72f,64c7fed44a04f777bb1e18ce,64c800fb31f38f7412500573,up,1,0.75,0.2429,30,0,0.9499,,,,,,142,0,142,0,1,,,,,
,,841126,001,2023-07-31_20h44.28.493,arm3_eps,2022.2.5,Win32,60.00960154,61541ab0876a2758ac6dc72f,64c7fed44a04f777bb1e18ce,64c800fb31f38f7412500573,up,-1,0.75,0.2429,31,0,1.2869,,,,,,143,0,143,0,1,,,,,
,,841126,001,2023-07-31_20h44.28.493,arm3_eps,2022.2.5,Win32,60.00960154,61541ab0876a2758ac6dc72f,64c7fed44a04f777bb1e18ce,64c800fb31f38f7412500573,right,-1,0.75,0.2429,31,0.001453193,1.5137,,,,,,144,0,144,0,1,,,,,
,,841126,001,2023-07-31_20h44.28.493,arm3_eps,2022.2.5,Win32,60.00960154,61541ab0876a2758ac6dc72f,64c7fed44a04f777bb1e18ce,64c800fb31f38f7412500573,up,1,0.75,0.2429,31,0,0.5987,,,,,,145,0,145,0,1,,,,,
,,841126,001,2023-07-31_20h44.28.493,arm3_eps,2022.2.5,Win32,60.00960154,61541ab0876a2758ac6dc72f,64c7fed44a04f777bb1e18ce,64c800fb31f38f7412500573,up,1,0.75,0.2429,32,0,0.9819,,,,,,146,0,146,0,1,,,,,
,,841126,001,2023-07-31_20h44.28.493,arm3_eps,2022.2.5,Win32,60.00960154,61541ab0876a2758ac6dc72f,64c7fed44a04f777bb1e18ce,64c800fb31f38f7412500573,right,1,0.75,0.2429,32,-0.015977911,1.6709,,,,,,147,0,147,0,1,,,,,
,,841126,001,2023-07-31_20h44.28.493,arm3_eps,2022.2.5,Win32,60.00960154,61541ab0876a2758ac6dc72f,64c7fed44a04f777bb1e18ce,64c800fb31f38f7412500573,right,1,0.75,0.2429,32,-0.004316324,0.5918,,,,,,148,0,148,0,1,,,,,
,,841126,001,2023-07-31_20h44.28.493,arm3_eps,2022.2.5,Win32,60.00960154,61541ab0876a2758ac6dc72f,64c7fed44a04f777bb1e18ce,64c800fb31f38f7412500573,up,1,0.75,0.2429,33,0,0.4968,,,,,,149,0,149,0,1,,,,,
,,841126,001,2023-07-31_20h44.28.493,arm3_eps,2022.2.5,Win32,60.00960154,61541ab0876a2758ac6dc72f,64c7fed44a04f777bb1e18ce,64c800fb31f38f7412500573,up,1,0.75,0.2429,33,0,0.9605,,,,,,150,0,150,0,1,,,,,
,,841126,001,2023-07-31_20h44.28.493,arm3_eps,2022.2.5,Win32,60.00960154,61541ab0876a2758ac6dc72f,64c7fed44a04f777bb1e18ce,64c800fb31f38f7412500573,up,1,0.75,0.2429,34,0,0.9859,,,,,,151,0,151,0,1,,,,,
,,841126,001,2023-07-31_20h44.28.493,arm3_eps,2022.2.5,Win32,60.00960154,61541ab0876a2758ac6dc72f,64c7fed44a04f777bb1e18ce,64c800fb31f38f7412500573,up,1,0.75,0.2429,35,0,0.9434,,,,,,152,0,152,0,1,,,,,
,,841126,001,2023-07-31_20h44.28.493,arm3_eps,2022.2.5,Win32,60.00960154,61541ab0876a2758ac6dc72f,64c7fed44a04f777bb1e18ce,64c800fb31f38f7412500573,up,-1,0.75,0.2429,36,0,1.7847,,,,,,153,0,153,0,1,,,,,
,,841126,001,2023-07-31_20h44.28.493,arm3_eps,2022.2.5,Win32,60.00960154,61541ab0876a2758ac6dc72f,64c7fed44a04f777bb1e18ce,64c800fb31f38f7412500573,right,-1,0.75,0.2429,36,-0.029030005,2.087,,,,,,154,0,154,0,1,,,,,
,,841126,001,2023-07-31_20h44.28.493,arm3_eps,2022.2.5,Win32,60.00960154,61541ab0876a2758ac6dc72f,64c7fed44a04f777bb1e18ce,64c800fb31f38f7412500573,down,-1,0.75,0.2429,37,0,0.6016,,,,,,155,0,155,0,1,,,,,
,,841126,001,2023-07-31_20h44.28.493,arm3_eps,2022.2.5,Win32,60.00960154,61541ab0876a2758ac6dc72f,64c7fed44a04f777bb1e18ce,64c800fb31f38f7412500573,up,-1,0.75,0.2429,36,0,0.0035,,,,,,156,0,156,0,1,,,,,
,,841126,001,2023-07-31_20h44.28.493,arm3_eps,2022.2.5,Win32,60.00960154,61541ab0876a2758ac6dc72f,64c7fed44a04f777bb1e18ce,64c800fb31f38f7412500573,right,-1,0.75,0.2429,36,-0.007181947,8.4642,,,,,,157,0,157,0,1,,,,,
,,841126,001,2023-07-31_20h44.28.493,arm3_eps,2022.2.5,Win32,60.00960154,61541ab0876a2758ac6dc72f,64c7fed44a04f777bb1e18ce,64c800fb31f38f7412500573,down,-1,0.75,0.2429,37,0,0.5614,,,,,,158,0,158,0,1,,,,,
,,841126,001,2023-07-31_20h44.28.493,arm3_eps,2022.2.5,Win32,60.00960154,61541ab0876a2758ac6dc72f,64c7fed44a04f777bb1e18ce,64c800fb31f38f7412500573,right,-1,0.75,0.2429,37,0.004065687,1.0851,,,,,,159,0,159,0,1,,,,,
,,841126,001,2023-07-31_20h44.28.493,arm3_eps,2022.2.5,Win32,60.00960154,61541ab0876a2758ac6dc72f,64c7fed44a04f777bb1e18ce,64c800fb31f38f7412500573,down,-1,0.75,0.2429,38,0,0.5006,,,,,,160,0,160,0,1,,,,,
,,841126,001,2023-07-31_20h44.28.493,arm3_eps,2022.2.5,Win32,60.00960154,61541ab0876a2758ac6dc72f,64c7fed44a04f777bb1e18ce,64c800fb31f38f7412500573,right,-1,0.75,0.2429,38,-0.027501782,0.9263,,,,,,161,0,161,0,1,,,,,
,,841126,001,2023-07-31_20h44.28.493,arm3_eps,2022.2.5,Win32,60.00960154,61541ab0876a2758ac6dc72f,64c7fed44a04f777bb1e18ce,64c800fb31f38f7412500573,right,-1,0.75,0.2429,38,-0.027500144,0.6265,,,,,,162,0,162,0,1,,,,,
,,841126,001,2023-07-31_20h44.28.493,arm3_eps,2022.2.5,Win32,60.00960154,61541ab0876a2758ac6dc72f,64c7fed44a04f777bb1e18ce,64c800fb31f38f7412500573,down,-1,0.75,0.2429,39,0,0.478,,,,,,163,0,163,0,1,,,,,
,,841126,001,2023-07-31_20h44.28.493,arm3_eps,2022.2.5,Win32,60.00960154,61541ab0876a2758ac6dc72f,64c7fed44a04f777bb1e18ce,64c800fb31f38f7412500573,up,-1,0.75,0.2429,38,0,1.6688,,,,,,164,0,164,0,1,,,,,
,,841126,001,2023-07-31_20h44.28.493,arm3_eps,2022.2.5,Win32,60.00960154,61541ab0876a2758ac6dc72f,64c7fed44a04f777bb1e18ce,64c800fb31f38f7412500573,right,-1,0.75,0.2429,38,-0.00047458,1.3353,,,,,,165,0,165,0,1,,,,,
,,841126,001,2023-07-31_20h44.28.493,arm3_eps,2022.2.5,Win32,60.00960154,61541ab0876a2758ac6dc72f,64c7fed44a04f777bb1e18ce,64c800fb31f38f7412500573,down,-1,0.75,0.2429,39,0,0.4588,,,,,,166,0,166,0,1,,,,,
,,841126,001,2023-07-31_20h44.28.493,arm3_eps,2022.2.5,Win32,60.00960154,61541ab0876a2758ac6dc72f,64c7fed44a04f777bb1e18ce,64c800fb31f38f7412500573,up,-1,0.75,0.2429,38,0,2.0746,,,,,,167,0,167,0,1,,,,,
,,841126,001,2023-07-31_20h44.28.493,arm3_eps,2022.2.5,Win32,60.00960154,61541ab0876a2758ac6dc72f,64c7fed44a04f777bb1e18ce,64c800fb31f38f7412500573,down,-1,0.75,0.2429,38,0,3.0823,,,,,,168,0,168,0,1,,,,,
,,841126,001,2023-07-31_20h44.28.493,arm3_eps,2022.2.5,Win32,60.00960154,61541ab0876a2758ac6dc72f,64c7fed44a04f777bb1e18ce,64c800fb31f38f7412500573,down,1,0.75,0.2429,39,0,1.0508,,,,,,169,0,169,0,1,,,,,
,,841126,001,2023-07-31_20h44.28.493,arm3_eps,2022.2.5,Win32,60.00960154,61541ab0876a2758ac6dc72f,64c7fed44a04f777bb1e18ce,64c800fb31f38f7412500573,up,1,0.75,0.2429,40,0,1.1975,,,,,,170,0,170,0,1,,,,,
,,841126,001,2023-07-31_20h44.28.493,arm3_eps,2022.2.5,Win32,60.00960154,61541ab0876a2758ac6dc72f,64c7fed44a04f777bb1e18ce,64c800fb31f38f7412500573,down,1,0.75,0.2429,39,0,1.0599,,,,,,171,0,171,0,1,,,,,
,,841126,001,2023-07-31_20h44.28.493,arm3_eps,2022.2.5,Win32,60.00960154,61541ab0876a2758ac6dc72f,64c7fed44a04f777bb1e18ce,64c800fb31f38f7412500573,up,-1,0.75,0.2429,40,0,0.9069,,,,,,172,0,172,0,1,,,,,
,,841126,001,2023-07-31_20h44.28.493,arm3_eps,2022.2.5,Win32,60.00960154,61541ab0876a2758ac6dc72f,64c7fed44a04f777bb1e18ce,64c800fb31f38f7412500573,down,-1,0.75,0.2429,41,0,1.0816,,,,,,173,0,173,0,1,,,,,
,,841126,001,2023-07-31_20h44.28.493,arm3_eps,2022.2.5,Win32,60.00960154,61541ab0876a2758ac6dc72f,64c7fed44a04f777bb1e18ce,64c800fb31f38f7412500573,down,-1,0.75,0.2429,42,0,1.0765,,,,,,174,0,174,0,1,,,,,
,,841126,001,2023-07-31_20h44.28.493,arm3_eps,2022.2.5,Win32,60.00960154,61541ab0876a2758ac6dc72f,64c7fed44a04f777bb1e18ce,64c800fb31f38f7412500573,down,-1,0.75,0.2429,42,0,0.9516,,,,,,175,0,175,0,1,,,,,
,,841126,001,2023-07-31_20h44.28.493,arm3_eps,2022.2.5,Win32,60.00960154,61541ab0876a2758ac6dc72f,64c7fed44a04f777bb1e18ce,64c800fb31f38f7412500573,down,1,0.75,0.2429,43,0,1.3418,,,,,,176,0,176,0,1,,,,,
,,841126,001,2023-07-31_20h44.28.493,arm3_eps,2022.2.5,Win32,60.00960154,61541ab0876a2758ac6dc72f,64c7fed44a04f777bb1e18ce,64c800fb31f38f7412500573,right,1,0.75,0.2429,43,0.014602406,1.8328,,,,,,177,0,177,0,1,,,,,
,,841126,001,2023-07-31_20h44.28.493,arm3_eps,2022.2.5,Win32,60.00960154,61541ab0876a2758ac6dc72f,64c7fed44a04f777bb1e18ce,64c800fb31f38f7412500573,down,-1,0.75,0.2429,42,0,0.6262,,,,,,178,0,178,0,1,,,,,
,,841126,001,2023-07-31_20h44.28.493,arm3_eps,2022.2.5,Win32,60.00960154,61541ab0876a2758ac6dc72f,64c7fed44a04f777bb1e18ce,64c800fb31f38f7412500573,up,1,0.75,0.2429,41,0,1.4015,,,,,,179,0,179,0,1,,,,,
,,841126,001,2023-07-31_20h44.28.493,arm3_eps,2022.2.5,Win32,60.00960154,61541ab0876a2758ac6dc72f,64c7fed44a04f777bb1e18ce,64c800fb31f38f7412500573,up,1,0.75,0.2429,41,0,1.0529,,,,,,180,0,180,0,1,,,,,
,,841126,001,2023-07-31_20h44.28.493,arm3_eps,2022.2.5,Win32,60.00960154,61541ab0876a2758ac6dc72f,64c7fed44a04f777bb1e18ce,64c800fb31f38f7412500573,up,1,0.75,0.2429,42,0,1.8071,,,,,,181,0,181,0,1,,,,,
,,841126,001,2023-07-31_20h44.28.493,arm3_eps,2022.2.5,Win32,60.00960154,61541ab0876a2758ac6dc72f,64c7fed44a04f777bb1e18ce,64c800fb31f38f7412500573,right,1,0.75,0.2429,42,-0.001853372,1.4902,,,,,,182,0,182,0,1,,,,,
,,841126,001,2023-07-31_20h44.28.493,arm3_eps,2022.2.5,Win32,60.00960154,61541ab0876a2758ac6dc72f,64c7fed44a04f777bb1e18ce,64c800fb31f38f7412500573,up,1,0.75,0.2429,42,0,0.4304,,,,,,183,0,183,0,1,,,,,
,,841126,001,2023-07-31_20h44.28.493,arm3_eps,2022.2.5,Win32,60.00960154,61541ab0876a2758ac6dc72f,64c7fed44a04f777bb1e18ce,64c800fb31f38f7412500573,up,1,0.75,0.2429,43,0,0.966,,,,,,184,0,184,0,1,,,,,
,,841126,001,2023-07-31_20h44.28.493,arm3_eps,2022.2.5,Win32,60.00960154,61541ab0876a2758ac6dc72f,64c7fed44a04f777bb1e18ce,64c800fb31f38f7412500573,up,1,0.75,0.2429,43,0,1.566,,,,,,185,0,185,0,1,,,,,
,,841126,001,2023-07-31_20h44.28.493,arm3_eps,2022.2.5,Win32,60.00960154,61541ab0876a2758ac6dc72f,64c7fed44a04f777bb1e18ce,64c800fb31f38f7412500573,up,1,0.75,0.2429,44,0,1.5559,,,,,,186,0,186,0,1,,,,,
,,841126,001,2023-07-31_20h44.28.493,arm3_eps,2022.2.5,Win32,60.00960154,61541ab0876a2758ac6dc72f,64c7fed44a04f777bb1e18ce,64c800fb31f38f7412500573,up,1,0.75,0.2429,45,0,1.0397,,,,,,187,0,187,0,1,,,,,
,,841126,001,2023-07-31_20h44.28.493,arm3_eps,2022.2.5,Win32,60.00960154,61541ab0876a2758ac6dc72f,64c7fed44a04f777bb1e18ce,64c800fb31f38f7412500573,up,1,0.75,0.2429,46,0,1.0846,,,,,,188,0,188,0,1,,,,,
,,841126,001,2023-07-31_20h44.28.493,arm3_eps,2022.2.5,Win32,60.00960154,61541ab0876a2758ac6dc72f,64c7fed44a04f777bb1e18ce,64c800fb31f38f7412500573,up,1,0.75,0.2429,47,0,1.2823,,,,,,189,0,189,0,1,,,,,
,,841126,001,2023-07-31_20h44.28.493,arm3_eps,2022.2.5,Win32,60.00960154,61541ab0876a2758ac6dc72f,64c7fed44a04f777bb1e18ce,64c800fb31f38f7412500573,down,-1,0.75,0.2429,47,0,1.1711,,,,,,190,0,190,0,1,,,,,
,,841126,001,2023-07-31_20h44.28.493,arm3_eps,2022.2.5,Win32,60.00960154,61541ab0876a2758ac6dc72f,64c7fed44a04f777bb1e18ce,64c800fb31f38f7412500573,right,-1,0.75,0.2429,47,0.000411302,1.5524,,,,,,191,0,191,0,1,,,,,
,,841126,001,2023-07-31_20h44.28.493,arm3_eps,2022.2.5,Win32,60.00960154,61541ab0876a2758ac6dc72f,64c7fed44a04f777bb1e18ce,64c800fb31f38f7412500573,right,-1,0.75,0.2429,47,-0.002785369,0.3758,,,,,,192,0,192,0,1,,,,,
,,841126,001,2023-07-31_20h44.28.493,arm3_eps,2022.2.5,Win32,60.00960154,61541ab0876a2758ac6dc72f,64c7fed44a04f777bb1e18ce,64c800fb31f38f7412500573,down,-1,0.75,0.2429,47,0,0.36,,,,,,193,0,193,0,1,,,,,
,,841126,001,2023-07-31_20h44.28.493,arm3_eps,2022.2.5,Win32,60.00960154,61541ab0876a2758ac6dc72f,64c7fed44a04f777bb1e18ce,64c800fb31f38f7412500573,right,-1,0.75,0.2429,47,0.00586918,1.2335,,,,,,194,0,194,0,1,,,,,
,,841126,001,2023-07-31_20h44.28.493,arm3_eps,2022.2.5,Win32,60.00960154,61541ab0876a2758ac6dc72f,64c7fed44a04f777bb1e18ce,64c800fb31f38f7412500573,right,-1,0.75,0.2429,47,0.001827515,0.2212,,,,,,195,0,195,0,1,,,,,
,,841126,001,2023-07-31_20h44.28.493,arm3_eps,2022.2.5,Win32,60.00960154,61541ab0876a2758ac6dc72f,64c7fed44a04f777bb1e18ce,64c800fb31f38f7412500573,up,1,0.75,0.2429,46,0,0.6686,,,,,,196,0,196,0,1,,,,,
,,841126,001,2023-07-31_20h44.28.493,arm3_eps,2022.2.5,Win32,60.00960154,61541ab0876a2758ac6dc72f,64c7fed44a04f777bb1e18ce,64c800fb31f38f7412500573,up,1,0.75,0.2429,47,0,4.9929,,,,,,197,0,197,0,1,,,,,
,,841126,001,2023-07-31_20h44.28.493,arm3_eps,2022.2.5,Win32,60.00960154,61541ab0876a2758ac6dc72f,64c7fed44a04f777bb1e18ce,64c800fb31f38f7412500573,right,1,0.75,0.2429,47,0.004342801,1.9162,,,,,,198,0,198,0,1,,,,,
,,841126,001,2023-07-31_20h44.28.493,arm3_eps,2022.2.5,Win32,60.00960154,61541ab0876a2758ac6dc72f,64c7fed44a04f777bb1e18ce,64c800fb31f38f7412500573,up,1,0.75,0.2429,47,0,0.6421,,,,,,199,0,199,0,1,,,,,
,,841126,001,2023-07-31_20h44.28.493,arm3_eps,2022.2.5,Win32,60.00960154,61541ab0876a2758ac6dc72f,64c7fed44a04f777bb1e18ce,64c800fb31f38f7412500573,right,1,0.75,0.2429,47,-0.001924295,1.3477,,,,,,200,0,200,0,1,,,,,
,,841126,001,2023-07-31_20h44.28.493,arm3_eps,2022.2.5,Win32,60.00960154,61541ab0876a2758ac6dc72f,64c7fed44a04f777bb1e18ce,64c800fb31f38f7412500573,right,1,0.75,0.2429,47,-0.00779071,0.6507,,,,,,201,0,201,0,1,,,,,
,,841126,001,2023-07-31_20h44.28.493,arm3_eps,2022.2.5,Win32,60.00960154,61541ab0876a2758ac6dc72f,64c7fed44a04f777bb1e18ce,64c800fb31f38f7412500573,right,1,0.75,0.2429,47,0.001197203,0.5671,,,,,,202,0,202,0,1,,,,,
,,841126,001,2023-07-31_20h44.28.493,arm3_eps,2022.2.5,Win32,60.00960154,61541ab0876a2758ac6dc72f,64c7fed44a04f777bb1e18ce,64c800fb31f38f7412500573,right,1,0.75,0.2429,47,0.012223315,0.401,,,,,,203,0,203,0,1,,,,,
,,841126,001,2023-07-31_20h44.28.493,arm3_eps,2022.2.5,Win32,60.00960154,61541ab0876a2758ac6dc72f,64c7fed44a04f777bb1e18ce,64c800fb31f38f7412500573,up,1,0.75,0.2429,47,0,0.4828,,,,,,204,0,204,0,1,,,,,
,,841126,001,2023-07-31_20h44.28.493,arm3_eps,2022.2.5,Win32,60.00960154,61541ab0876a2758ac6dc72f,64c7fed44a04f777bb1e18ce,64c800fb31f38f7412500573,right,1,0.75,0.2429,47,0.019414176,1.0931,,,,,,205,0,205,0,1,,,,,
,,841126,001,2023-07-31_20h44.28.493,arm3_eps,2022.2.5,Win32,60.00960154,61541ab0876a2758ac6dc72f,64c7fed44a04f777bb1e18ce,64c800fb31f38f7412500573,up,-1,0.75,0.2429,48,0,0.4505,,,,,,206,0,206,0,1,,,,,
,,841126,001,2023-07-31_20h44.28.493,arm3_eps,2022.2.5,Win32,60.00960154,61541ab0876a2758ac6dc72f,64c7fed44a04f777bb1e18ce,64c800fb31f38f7412500573,down,-1,0.75,0.2429,48,0,22.6469,,,,,,207,0,207,0,1,,,,,
,,841126,001,2023-07-31_20h44.28.493,arm3_eps,2022.2.5,Win32,60.00960154,61541ab0876a2758ac6dc72f,64c7fed44a04f777bb1e18ce,64c800fb31f38f7412500573,down,-1,0.75,0.2429,49,0,1.1739,,,,,,208,0,208,0,1,,,,,
,,841126,001,2023-07-31_20h44.28.493,arm3_eps,2022.2.5,Win32,60.00960154,61541ab0876a2758ac6dc72f,64c7fed44a04f777bb1e18ce,64c800fb31f38f7412500573,down,-1,0.75,0.2429,50,0,1.0271,,,,,,209,0,209,0,1,,,,,
,,841126,001,2023-07-31_20h44.28.493,arm3_eps,2022.2.5,Win32,60.00960154,61541ab0876a2758ac6dc72f,64c7fed44a04f777bb1e18ce,64c800fb31f38f7412500573,down,-1,0.75,0.2429,50,0,0.9313,,,,,,210,0,210,0,1,,,,,
,,841126,001,2023-07-31_20h44.28.493,arm3_eps,2022.2.5,Win32,60.00960154,61541ab0876a2758ac6dc72f,64c7fed44a04f777bb1e18ce,64c800fb31f38f7412500573,down,-1,0.75,0.2429,51,0,0.7117,,,,,,211,0,211,0,1,,,,,
,,841126,001,2023-07-31_20h44.28.493,arm3_eps,2022.2.5,Win32,60.00960154,61541ab0876a2758ac6dc72f,64c7fed44a04f777bb1e18ce,64c800fb31f38f7412500573,down,-1,0.75,0.2429,52,0,0.9742,,,,,,212,0,212,0,1,,,,,
,,841126,001,2023-07-31_20h44.28.493,arm3_eps,2022.2.5,Win32,60.00960154,61541ab0876a2758ac6dc72f,64c7fed44a04f777bb1e18ce,64c800fb31f38f7412500573,right,-1,0.75,0.2429,52,0.002168416,1.515,,,,,,213,0,213,0,1,,,,,
,,841126,001,2023-07-31_20h44.28.493,arm3_eps,2022.2.5,Win32,60.00960154,61541ab0876a2758ac6dc72f,64c7fed44a04f777bb1e18ce,64c800fb31f38f7412500573,right,-1,0.75,0.2429,52,-0.024495468,0.2023,,,,,,214,0,214,0,1,,,,,
,,841126,001,2023-07-31_20h44.28.493,arm3_eps,2022.2.5,Win32,60.00960154,61541ab0876a2758ac6dc72f,64c7fed44a04f777bb1e18ce,64c800fb31f38f7412500573,right,-1,0.75,0.2429,52,-0.00643263,0.5156,,,,,,215,0,215,0,1,,,,,
,,841126,001,2023-07-31_20h44.28.493,arm3_eps,2022.2.5,Win32,60.00960154,61541ab0876a2758ac6dc72f,64c7fed44a04f777bb1e18ce,64c800fb31f38f7412500573,right,-1,0.75,0.2429,52,-0.029518135,0.3601,,,,,,216,0,216,0,1,,,,,
,,841126,001,2023-07-31_20h44.28.493,arm3_eps,2022.2.5,Win32,60.00960154,61541ab0876a2758ac6dc72f,64c7fed44a04f777bb1e18ce,64c800fb31f38f7412500573,right,-1,0.75,0.2429,52,-0.056122989,0.3436,,,,,,217,0,217,0,1,,,,,
,,841126,001,2023-07-31_20h44.28.493,arm3_eps,2022.2.5,Win32,60.00960154,61541ab0876a2758ac6dc72f,64c7fed44a04f777bb1e18ce,64c800fb31f38f7412500573,down,1,0.75,0.2429,53,0,0.9103,,,,,,218,0,218,0,1,,,,,
,,841126,001,2023-07-31_20h44.28.493,arm3_eps,2022.2.5,Win32,60.00960154,61541ab0876a2758ac6dc72f,64c7fed44a04f777bb1e18ce,64c800fb31f38f7412500573,right,1,0.75,0.2429,53,-0.00978201,1.8939,,,,,,219,0,219,0,1,,,,,
,,841126,001,2023-07-31_20h44.28.493,arm3_eps,2022.2.5,Win32,60.00960154,61541ab0876a2758ac6dc72f,64c7fed44a04f777bb1e18ce,64c800fb31f38f7412500573,up,1,0.75,0.2429,54,0,0.6322,,,,,,220,0,220,0,1,,,,,
,,841126,001,2023-07-31_20h44.28.493,arm3_eps,2022.2.5,Win32,60.00960154,61541ab0876a2758ac6dc72f,64c7fed44a04f777bb1e18ce,64c800fb31f38f7412500573,right,1,0.75,0.2429,54,0.044728841,1.1885,,,,,,221,0,221,0,1,,,,,
,,841126,001,2023-07-31_20h44.28.493,arm3_eps,2022.2.5,Win32,60.00960154,61541ab0876a2758ac6dc72f,64c7fed44a04f777bb1e18ce,64c800fb31f38f7412500573,up,1,0.75,0.2429,55,0,0.6838,,,,,,222,0,222,0,1,,,,,
,,841126,001,2023-07-31_20h44.28.493,arm3_eps,2022.2.5,Win32,60.00960154,61541ab0876a2758ac6dc72f,64c7fed44a04f777bb1e18ce,64c800fb31f38f7412500573,right,1,0.75,0.2429,55,-0.011018152,2.013,,,,,,223,0,223,0,1,,,,,
,,841126,001,2023-07-31_20h44.28.493,arm3_eps,2022.2.5,Win32,60.00960154,61541ab0876a2758ac6dc72f,64c7fed44a04f777bb1e18ce,64c800fb31f38f7412500573,right,1,0.75,0.2429,55,-0.000752372,0.7589,,,,,,224,0,224,0,1,,,,,
,,841126,001,2023-07-31_20h44.28.493,arm3_eps,2022.2.5,Win32,60.00960154,61541ab0876a2758ac6dc72f,64c7fed44a04f777bb1e18ce,64c800fb31f38f7412500573,up,-1,0.75,0.2429,56,0,0.6419,,,,,,225,0,225,0,1,,,,,
,,841126,001,2023-07-31_20h44.28.493,arm3_eps,2022.2.5,Win32,60.00960154,61541ab0876a2758ac6dc72f,64c7fed44a04f777bb1e18ce,64c800fb31f38f7412500573,up,1,0.75,0.2429,55,0,1.7804,,,,,,226,0,226,0,1,,,,,
,,841126,001,2023-07-31_20h44.28.493,arm3_eps,2022.2.5,Win32,60.00960154,61541ab0876a2758ac6dc72f,64c7fed44a04f777bb1e18ce,64c800fb31f38f7412500573,up,1,0.75,0.2429,56,0,1.171,,,,,,227,0,227,0,1,,,,,
,,841126,001,2023-07-31_20h44.28.493,arm3_eps,2022.2.5,Win32,60.00960154,61541ab0876a2758ac6dc72f,64c7fed44a04f777bb1e18ce,64c800fb31f38f7412500573,up,1,0.75,0.2429,57,0,1.1659,,,,,,228,0,228,0,1,,,,,
,,841126,001,2023-07-31_20h44.28.493,arm3_eps,2022.2.5,Win32,60.00960154,61541ab0876a2758ac6dc72f,64c7fed44a04f777bb1e18ce,64c800fb31f38f7412500573,up,1,0.75,0.2429,58,0,0.9823,,,,,,229,0,229,0,1,,,,,
,,841126,001,2023-07-31_20h44.28.493,arm3_eps,2022.2.5,Win32,60.00960154,61541ab0876a2758ac6dc72f,64c7fed44a04f777bb1e18ce,64c800fb31f38f7412500573,down,1,0.75,0.2429,57,0,1.3704,,,,,,230,0,230,0,1,,,,,
,,841126,001,2023-07-31_20h44.28.493,arm3_eps,2022.2.5,Win32,60.00960154,61541ab0876a2758ac6dc72f,64c7fed44a04f777bb1e18ce,64c800fb31f38f7412500573,up,1,0.75,0.2429,58,0,0.9686,,,,,,231,0,231,0,1,,,,,
,,841126,001,2023-07-31_20h44.28.493,arm3_eps,2022.2.5,Win32,60.00960154,61541ab0876a2758ac6dc72f,64c7fed44a04f777bb1e18ce,64c800fb31f38f7412500573,up,1,0.75,0.2429,59,0,0.883,,,,,,232,0,232,0,1,,,,,
,,841126,001,2023-07-31_20h44.28.493,arm3_eps,2022.2.5,Win32,60.00960154,61541ab0876a2758ac6dc72f,64c7fed44a04f777bb1e18ce,64c800fb31f38f7412500573,right,1,0.75,0.2429,59,0.000980223,5.8258,,,,,,233,0,233,0,1,,,,,
,,841126,001,2023-07-31_20h44.28.493,arm3_eps,2022.2.5,Win32,60.00960154,61541ab0876a2758ac6dc72f,64c7fed44a04f777bb1e18ce,64c800fb31f38f7412500573,up,1,0.75,0.2429,60,0,0.4218,,,,,,234,0,234,0,1,,,,,
,,841126,001,2023-07-31_20h44.28.493,arm3_eps,2022.2.5,Win32,60.00960154,61541ab0876a2758ac6dc72f,64c7fed44a04f777bb1e18ce,64c800fb31f38f7412500573,up,1,0.75,0.2429,60,0,1.1384,,,,,,235,0,235,0,1,,,,,
,,841126,001,2023-07-31_20h44.28.493,arm3_eps,2022.2.5,Win32,60.00960154,61541ab0876a2758ac6dc72f,64c7fed44a04f777bb1e18ce,64c800fb31f38f7412500573,up,-1,0.75,0.2429,61,0,1.9488,,,,,,236,0,236,0,1,,,,,
,,841126,001,2023-07-31_20h44.28.493,arm3_eps,2022.2.5,Win32,60.00960154,61541ab0876a2758ac6dc72f,64c7fed44a04f777bb1e18ce,64c800fb31f38f7412500573,up,1,0.75,0.2429,60,0,0.7482,,,,,,237,0,237,0,1,,,,,
,,841126,001,2023-07-31_20h44.28.493,arm3_eps,2022.2.5,Win32,60.00960154,61541ab0876a2758ac6dc72f,64c7fed44a04f777bb1e18ce,64c800fb31f38f7412500573,up,1,0.75,0.2429,61,0,1.1639,,,,,,238,0,238,0,1,,,,,
,,841126,001,2023-07-31_20h44.28.493,arm3_eps,2022.2.5,Win32,60.00960154,61541ab0876a2758ac6dc72f,64c7fed44a04f777bb1e18ce,64c800fb31f38f7412500573,down,1,0.75,0.2429,60,0,1.2604,,,,,,239,0,239,0,1,,,,,
,,841126,001,2023-07-31_20h44.28.493,arm3_eps,2022.2.5,Win32,60.00960154,61541ab0876a2758ac6dc72f,64c7fed44a04f777bb1e18ce,64c800fb31f38f7412500573,up,1,0.75,0.2429,61,0,0.9609,,,,,,240,0,240,0,1,,,,,
,,841126,001,2023-07-31_20h44.28.493,arm3_eps,2022.2.5,Win32,60.00960154,61541ab0876a2758ac6dc72f,64c7fed44a04f777bb1e18ce,64c800fb31f38f7412500573,up,1,0.75,0.2429,62,0,1.0599,,,,,,241,0,241,0,1,,,,,
,,841126,001,2023-07-31_20h44.28.493,arm3_eps,2022.2.5,Win32,60.00960154,61541ab0876a2758ac6dc72f,64c7fed44a04f777bb1e18ce,64c800fb31f38f7412500573,up,-1,0.75,0.2429,63,0,1.0001,,,,,,242,0,242,0,1,,,,,
,,841126,001,2023-07-31_20h44.28.493,arm3_eps,2022.2.5,Win32,60.00960154,61541ab0876a2758ac6dc72f,64c7fed44a04f777bb1e18ce,64c800fb31f38f7412500573,right,-1,0.75,0.2429,63,-0.014998954,1.6217,,,,,,243,0,243,0,1,,,,,
,,841126,001,2023-07-31_20h44.28.493,arm3_eps,2022.2.5,Win32,60.00960154,61541ab0876a2758ac6dc72f,64c7fed44a04f777bb1e18ce,64c800fb31f38f7412500573,right,-1,0.75,0.2429,63,-0.000410251,0.551,,,,,,244,0,244,0,1,,,,,
,,841126,001,2023-07-31_20h44.28.493,arm3_eps,2022.2.5,Win32,60.00960154,61541ab0876a2758ac6dc72f,64c7fed44a04f777bb1e18ce,64c800fb31f38f7412500573,right,-1,0.75,0.2429,63,-0.021265115,0.3823,,,,,,245,0,245,0,1,,,,,
,,841126,001,2023-07-31_20h44.28.493,arm3_eps,2022.2.5,Win32,60.00960154,61541ab0876a2758ac6dc72f,64c7fed44a04f777bb1e18ce,64c800fb31f38f7412500573,right,-1,0.75,0.2429,63,-0.014168017,0.3779,,,,,,246,0,246,0,1,,,,,
,,841126,001,2023-07-31_20h44.28.493,arm3_eps,2022.2.5,Win32,60.00960154,61541ab0876a2758ac6dc72f,64c7fed44a04f777bb1e18ce,64c800fb31f38f7412500573,right,-1,0.75,0.2429,63,-0.022945297,0.4448,,,,,,247,0,247,0,1,,,,,
,,841126,001,2023-07-31_20h44.28.493,arm3_eps,2022.2.5,Win32,60.00960154,61541ab0876a2758ac6dc72f,64c7fed44a04f777bb1e18ce,64c800fb31f38f7412500573,right,-1,0.75,0.2429,63,-0.026243609,0.6586,,,,,,248,0,248,0,1,,,,,
,,841126,001,2023-07-31_20h44.28.493,arm3_eps,2022.2.5,Win32,60.00960154,61541ab0876a2758ac6dc72f,64c7fed44a04f777bb1e18ce,64c800fb31f38f7412500573,right,-1,0.75,0.2429,63,-0.039538308,0.3244,,,,,,249,0,249,0,1,,,,,
,,841126,001,2023-07-31_20h44.28.493,arm3_eps,2022.2.5,Win32,60.00960154,61541ab0876a2758ac6dc72f,64c7fed44a04f777bb1e18ce,64c800fb31f38f7412500573,down,-1,0.75,0.2429,64,0,1.9775,,,,,,250,0,250,0,1,,,,,
,,841126,001,2023-07-31_20h44.28.493,arm3_eps,2022.2.5,Win32,60.00960154,61541ab0876a2758ac6dc72f,64c7fed44a04f777bb1e18ce,64c800fb31f38f7412500573,right,-1,0.75,0.2429,64,-0.000866681,4.0813,,,,,,251,0,251,0,1,,,,,
,,841126,001,2023-07-31_20h44.28.493,arm3_eps,2022.2.5,Win32,60.00960154,61541ab0876a2758ac6dc72f,64c7fed44a04f777bb1e18ce,64c800fb31f38f7412500573,right,-1,0.75,0.2429,64,-0.005775408,0.9948,,,,,,252,0,252,0,1,,,,,
,,841126,001,2023-07-31_20h44.28.493,arm3_eps,2022.2.5,Win32,60.00960154,61541ab0876a2758ac6dc72f,64c7fed44a04f777bb1e18ce,64c800fb31f38f7412500573,up,1,0.75,0.2429,64,0,0.6341,,,,,,253,0,253,0,1,,,,,
,,841126,001,2023-07-31_20h44.28.493,arm3_eps,2022.2.5,Win32,60.00960154,61541ab0876a2758ac6dc72f,64c7fed44a04f777bb1e18ce,64c800fb31f38f7412500573,up,1,0.75,0.2429,65,0,1.2259,,,,,,254,0,254,0,1,,,,,
,,841126,001,2023-07-31_20h44.28.493,arm3_eps,2022.2.5,Win32,60.00960154,61541ab0876a2758ac6dc72f,64c7fed44a04f777bb1e18ce,64c800fb31f38f7412500573,down,1,0.75,0.2429,64,0,1.5096,,,,,,255,0,255,0,1,,,,,
,,841126,001,2023-07-31_20h44.28.493,arm3_eps,2022.2.5,Win32,60.00960154,61541ab0876a2758ac6dc72f,64c7fed44a04f777bb1e18ce,64c800fb31f38f7412500573,up,-1,0.75,0.2429,65,0,0.9154,,,,,,256,0,256,0,1,,,,,
,,841126,001,2023-07-31_20h44.28.493,arm3_eps,2022.2.5,Win32,60.00960154,61541ab0876a2758ac6dc72f,64c7fed44a04f777bb1e18ce,64c800fb31f38f7412500573,up,-1,0.75,0.2429,64,0,1.9718,,,,,,257,0,257,0,1,,,,,
,,841126,001,2023-07-31_20h44.28.493,arm3_eps,2022.2.5,Win32,60.00960154,61541ab0876a2758ac6dc72f,64c7fed44a04f777bb1e18ce,64c800fb31f38f7412500573,down,1,0.75,0.2429,65,0,1.4172,,,,,,258,0,258,0,1,,,,,
,,841126,001,2023-07-31_20h44.28.493,arm3_eps,2022.2.5,Win32,60.00960154,61541ab0876a2758ac6dc72f,64c7fed44a04f777bb1e18ce,64c800fb31f38f7412500573,right,1,0.75,0.2429,65,0.000815407,2.5237,,,,,,259,0,259,0,1,,,,,
,,841126,001,2023-07-31_20h44.28.493,arm3_eps,2022.2.5,Win32,60.00960154,61541ab0876a2758ac6dc72f,64c7fed44a04f777bb1e18ce,64c800fb31f38f7412500573,up,1,0.75,0.2429,66,0,0.6094,,,,,,260,0,260,0,1,,,,,
,,841126,001,2023-07-31_20h44.28.493,arm3_eps,2022.2.5,Win32,60.00960154,61541ab0876a2758ac6dc72f,64c7fed44a04f777bb1e18ce,64c800fb31f38f7412500573,up,1,0.75,0.2429,67,0,1.2738,,,,,,261,0,261,0,1,,,,,
,,841126,001,2023-07-31_20h44.28.493,arm3_eps,2022.2.5,Win32,60.00960154,61541ab0876a2758ac6dc72f,64c7fed44a04f777bb1e18ce,64c800fb31f38f7412500573,down,1,0.75,0.2429,66,0,1.1552,,,,,,262,0,262,0,1,,,,,
,,841126,001,2023-07-31_20h44.28.493,arm3_eps,2022.2.5,Win32,60.00960154,61541ab0876a2758ac6dc72f,64c7fed44a04f777bb1e18ce,64c800fb31f38f7412500573,up,1,0.75,0.2429,67,0,0.9803,,,,,,263,0,263,0,1,,,,,
,,841126,001,2023-07-31_20h44.28.493,arm3_eps,2022.2.5,Win32,60.00960154,61541ab0876a2758ac6dc72f,64c7fed44a04f777bb1e18ce,64c800fb31f38f7412500573,down,1,0.75,0.2429,66,0,1.2513,,,,,,264,0,264,0,1,,,,,
,,841126,001,2023-07-31_20h44.28.493,arm3_eps,2022.2.5,Win32,60.00960154,61541ab0876a2758ac6dc72f,64c7fed44a04f777bb1e18ce,64c800fb31f38f7412500573,up,1,0.75,0.2429,67,0,0.9683,,,,,,265,0,265,0,1,,,,,
,,841126,001,2023-07-31_20h44.28.493,arm3_eps,2022.2.5,Win32,60.00960154,61541ab0876a2758ac6dc72f,64c7fed44a04f777bb1e18ce,64c800fb31f38f7412500573,up,1,0.75,0.2429,68,0,0.9463,,,,,,266,0,266,0,1,,,,,
,,841126,001,2023-07-31_20h44.28.493,arm3_eps,2022.2.5,Win32,60.00960154,61541ab0876a2758ac6dc72f,64c7fed44a04f777bb1e18ce,64c800fb31f38f7412500573,up,-1,0.75,0.2429,68,0,0.8989,,,,,,267,0,267,0,1,,,,,
