space_bar.keys,space_bar.rt,participant,session,date,expName,psychopyVersion,OS,frameRate,PROLIFIC_PID,STUDY_ID,SESSION_ID,resp.keys,state,q_prob,eps_prob,score,price,resp.rt,train.thisRepN,train.thisTrialN,train.thisN,train.thisIndex,train.ran,steps.thisRepN,steps.thisTrialN,steps.thisN,steps.thisIndex,steps.ran,blocks.thisRepN,blocks.thisTrialN,blocks.thisN,blocks.thisIndex,blocks.ran
space,7.4634,850303,001,2023-07-31_20h43.05.105,arm3_eps,2022.2.5,Win32,59.96282305,5f632ea32e85353d93872c67,64c7fed44a04f777bb1e18ce,64c80096a2334d1ce1c7ef74,,,,,,,,,,,,,,,,,,,,,,
space,2.8087,850303,001,2023-07-31_20h43.05.105,arm3_eps,2022.2.5,Win32,59.96282305,5f632ea32e85353d93872c67,64c7fed44a04f777bb1e18ce,64c80096a2334d1ce1c7ef74,,,,,,,,,,,,,,,,,,,,,,
space,9.12,850303,001,2023-07-31_20h43.05.105,arm3_eps,2022.2.5,Win32,59.96282305,5f632ea32e85353d93872c67,64c7fed44a04f777bb1e18ce,64c80096a2334d1ce1c7ef74,,,,,,,,,,,,,,,,,,,,,,
space,27.6845,850303,001,2023-07-31_20h43.05.105,arm3_eps,2022.2.5,Win32,59.96282305,5f632ea32e85353d93872c67,64c7fed44a04f777bb1e18ce,64c80096a2334d1ce1c7ef74,,,,,,,,,,,,,,,,,,,,,,
space,21.0506,850303,001,2023-07-31_20h43.05.105,arm3_eps,2022.2.5,Win32,59.96282305,5f632ea32e85353d93872c67,64c7fed44a04f777bb1e18ce,64c80096a2334d1ce1c7ef74,,,,,,,,,,,,,,,,,,,,,,
space,9.0343,850303,001,2023-07-31_20h43.05.105,arm3_eps,2022.2.5,Win32,59.96282305,5f632ea32e85353d93872c67,64c7fed44a04f777bb1e18ce,64c80096a2334d1ce1c7ef74,,,,,,,,,,,,,,,,,,,,,,
space,1.1674,850303,001,2023-07-31_20h43.05.105,arm3_eps,2022.2.5,Win32,59.96282305,5f632ea32e85353d93872c67,64c7fed44a04f777bb1e18ce,64c80096a2334d1ce1c7ef74,,,,,,,,,,,,,,,,,,,,,,
,,850303,001,2023-07-31_20h43.05.105,arm3_eps,2022.2.5,Win32,59.96282305,5f632ea32e85353d93872c67,64c7fed44a04f777bb1e18ce,64c80096a2334d1ce1c7ef74,right,-1,1,0.2429,0,-0.012686412,6.4337,0,0,0,0,1,,,,,,,,,,
,,850303,001,2023-07-31_20h43.05.105,arm3_eps,2022.2.5,Win32,59.96282305,5f632ea32e85353d93872c67,64c7fed44a04f777bb1e18ce,64c80096a2334d1ce1c7ef74,right,-1,1,0.2429,0,-0.00724986,1.1505,1,0,1,0,1,,,,,,,,,,
,,850303,001,2023-07-31_20h43.05.105,arm3_eps,2022.2.5,Win32,59.96282305,5f632ea32e85353d93872c67,64c7fed44a04f777bb1e18ce,64c80096a2334d1ce1c7ef74,right,-1,1,0.2429,0,0.001161246,0.4015,2,0,2,0,1,,,,,,,,,,
,,850303,001,2023-07-31_20h43.05.105,arm3_eps,2022.2.5,Win32,59.96282305,5f632ea32e85353d93872c67,64c7fed44a04f777bb1e18ce,64c80096a2334d1ce1c7ef74,right,-1,1,0.2429,0,-0.004463886,0.3845,3,0,3,0,1,,,,,,,,,,
,,850303,001,2023-07-31_20h43.05.105,arm3_eps,2022.2.5,Win32,59.96282305,5f632ea32e85353d93872c67,64c7fed44a04f777bb1e18ce,64c80096a2334d1ce1c7ef74,right,-1,1,0.2429,0,0.022081022,0.3336,4,0,4,0,1,,,,,,,,,,
,,850303,001,2023-07-31_20h43.05.105,arm3_eps,2022.2.5,Win32,59.96282305,5f632ea32e85353d93872c67,64c7fed44a04f777bb1e18ce,64c80096a2334d1ce1c7ef74,right,-1,1,0.2429,0,-0.010054734,0.4017,5,0,5,0,1,,,,,,,,,,
,,850303,001,2023-07-31_20h43.05.105,arm3_eps,2022.2.5,Win32,59.96282305,5f632ea32e85353d93872c67,64c7fed44a04f777bb1e18ce,64c80096a2334d1ce1c7ef74,right,-1,1,0.2429,0,-0.014803699,0.4666,6,0,6,0,1,,,,,,,,,,
,,850303,001,2023-07-31_20h43.05.105,arm3_eps,2022.2.5,Win32,59.96282305,5f632ea32e85353d93872c67,64c7fed44a04f777bb1e18ce,64c80096a2334d1ce1c7ef74,right,-1,1,0.2429,0,-0.014908845,0.3012,7,0,7,0,1,,,,,,,,,,
,,850303,001,2023-07-31_20h43.05.105,arm3_eps,2022.2.5,Win32,59.96282305,5f632ea32e85353d93872c67,64c7fed44a04f777bb1e18ce,64c80096a2334d1ce1c7ef74,right,-1,1,0.2429,0,-0.028614222,0.2837,8,0,8,0,1,,,,,,,,,,
,,850303,001,2023-07-31_20h43.05.105,arm3_eps,2022.2.5,Win32,59.96282305,5f632ea32e85353d93872c67,64c7fed44a04f777bb1e18ce,64c80096a2334d1ce1c7ef74,right,-1,1,0.2429,0,-0.041960422,0.3173,9,0,9,0,1,,,,,,,,,,
,,850303,001,2023-07-31_20h43.05.105,arm3_eps,2022.2.5,Win32,59.96282305,5f632ea32e85353d93872c67,64c7fed44a04f777bb1e18ce,64c80096a2334d1ce1c7ef74,right,-1,1,0.2429,0,-0.033136892,0.301,10,0,10,0,1,,,,,,,,,,
,,850303,001,2023-07-31_20h43.05.105,arm3_eps,2022.2.5,Win32,59.96282305,5f632ea32e85353d93872c67,64c7fed44a04f777bb1e18ce,64c80096a2334d1ce1c7ef74,right,-1,1,0.2429,0,-0.057485857,0.3008,11,0,11,0,1,,,,,,,,,,
,,850303,001,2023-07-31_20h43.05.105,arm3_eps,2022.2.5,Win32,59.96282305,5f632ea32e85353d93872c67,64c7fed44a04f777bb1e18ce,64c80096a2334d1ce1c7ef74,down,-1,1,0.2429,1,0,5.4175,12,0,12,0,1,,,,,,,,,,
,,850303,001,2023-07-31_20h43.05.105,arm3_eps,2022.2.5,Win32,59.96282305,5f632ea32e85353d93872c67,64c7fed44a04f777bb1e18ce,64c80096a2334d1ce1c7ef74,right,-1,1,0.2429,1,-0.024441766,3.3332,13,0,13,0,1,,,,,,,,,,
,,850303,001,2023-07-31_20h43.05.105,arm3_eps,2022.2.5,Win32,59.96282305,5f632ea32e85353d93872c67,64c7fed44a04f777bb1e18ce,64c80096a2334d1ce1c7ef74,right,-1,1,0.2429,1,-0.025399465,0.8055,14,0,14,0,1,,,,,,,,,,
,,850303,001,2023-07-31_20h43.05.105,arm3_eps,2022.2.5,Win32,59.96282305,5f632ea32e85353d93872c67,64c7fed44a04f777bb1e18ce,64c80096a2334d1ce1c7ef74,right,-1,1,0.2429,1,-0.066116715,0.164,15,0,15,0,1,,,,,,,,,,
,,850303,001,2023-07-31_20h43.05.105,arm3_eps,2022.2.5,Win32,59.96282305,5f632ea32e85353d93872c67,64c7fed44a04f777bb1e18ce,64c80096a2334d1ce1c7ef74,right,-1,1,0.2429,1,-0.085526477,0.1672,16,0,16,0,1,,,,,,,,,,
,,850303,001,2023-07-31_20h43.05.105,arm3_eps,2022.2.5,Win32,59.96282305,5f632ea32e85353d93872c67,64c7fed44a04f777bb1e18ce,64c80096a2334d1ce1c7ef74,right,-1,1,0.2429,1,-0.084369486,0.1502,17,0,17,0,1,,,,,,,,,,
,,850303,001,2023-07-31_20h43.05.105,arm3_eps,2022.2.5,Win32,59.96282305,5f632ea32e85353d93872c67,64c7fed44a04f777bb1e18ce,64c80096a2334d1ce1c7ef74,right,-1,1,0.2429,1,-0.070905104,0.1177,18,0,18,0,1,,,,,,,,,,
,,850303,001,2023-07-31_20h43.05.105,arm3_eps,2022.2.5,Win32,59.96282305,5f632ea32e85353d93872c67,64c7fed44a04f777bb1e18ce,64c80096a2334d1ce1c7ef74,right,-1,1,0.2429,1,-0.088566427,0.1518,19,0,19,0,1,,,,,,,,,,
,,850303,001,2023-07-31_20h43.05.105,arm3_eps,2022.2.5,Win32,59.96282305,5f632ea32e85353d93872c67,64c7fed44a04f777bb1e18ce,64c80096a2334d1ce1c7ef74,right,-1,1,0.2429,1,-0.091722138,0.1666,20,0,20,0,1,,,,,,,,,,
,,850303,001,2023-07-31_20h43.05.105,arm3_eps,2022.2.5,Win32,59.96282305,5f632ea32e85353d93872c67,64c7fed44a04f777bb1e18ce,64c80096a2334d1ce1c7ef74,right,-1,1,0.2429,1,-0.072183888,0.1647,21,0,21,0,1,,,,,,,,,,
,,850303,001,2023-07-31_20h43.05.105,arm3_eps,2022.2.5,Win32,59.96282305,5f632ea32e85353d93872c67,64c7fed44a04f777bb1e18ce,64c80096a2334d1ce1c7ef74,right,-1,1,0.2429,1,-0.100560628,0.1509,22,0,22,0,1,,,,,,,,,,
,,850303,001,2023-07-31_20h43.05.105,arm3_eps,2022.2.5,Win32,59.96282305,5f632ea32e85353d93872c67,64c7fed44a04f777bb1e18ce,64c80096a2334d1ce1c7ef74,right,-1,1,0.2429,1,-0.105194246,0.1839,23,0,23,0,1,,,,,,,,,,
,,850303,001,2023-07-31_20h43.05.105,arm3_eps,2022.2.5,Win32,59.96282305,5f632ea32e85353d93872c67,64c7fed44a04f777bb1e18ce,64c80096a2334d1ce1c7ef74,right,-1,1,0.2429,1,-0.085149268,0.2054,24,0,24,0,1,,,,,,,,,,
,,850303,001,2023-07-31_20h43.05.105,arm3_eps,2022.2.5,Win32,59.96282305,5f632ea32e85353d93872c67,64c7fed44a04f777bb1e18ce,64c80096a2334d1ce1c7ef74,down,-1,1,0.2429,2,0,0.9164,25,0,25,0,1,,,,,,,,,,
,,850303,001,2023-07-31_20h43.05.105,arm3_eps,2022.2.5,Win32,59.96282305,5f632ea32e85353d93872c67,64c7fed44a04f777bb1e18ce,64c80096a2334d1ce1c7ef74,right,-1,1,0.2429,2,-0.009906757,1.5662,26,0,26,0,1,,,,,,,,,,
,,850303,001,2023-07-31_20h43.05.105,arm3_eps,2022.2.5,Win32,59.96282305,5f632ea32e85353d93872c67,64c7fed44a04f777bb1e18ce,64c80096a2334d1ce1c7ef74,right,-1,1,0.2429,2,0.013214941,0.2339,27,0,27,0,1,,,,,,,,,,
,,850303,001,2023-07-31_20h43.05.105,arm3_eps,2022.2.5,Win32,59.96282305,5f632ea32e85353d93872c67,64c7fed44a04f777bb1e18ce,64c80096a2334d1ce1c7ef74,right,-1,1,0.2429,2,0.00493868,0.1499,28,0,28,0,1,,,,,,,,,,
,,850303,001,2023-07-31_20h43.05.105,arm3_eps,2022.2.5,Win32,59.96282305,5f632ea32e85353d93872c67,64c7fed44a04f777bb1e18ce,64c80096a2334d1ce1c7ef74,right,-1,1,0.2429,2,-0.006289728,0.1836,29,0,29,0,1,,,,,,,,,,
,,850303,001,2023-07-31_20h43.05.105,arm3_eps,2022.2.5,Win32,59.96282305,5f632ea32e85353d93872c67,64c7fed44a04f777bb1e18ce,64c80096a2334d1ce1c7ef74,right,-1,1,0.2429,2,0.025444684,0.1669,30,0,30,0,1,,,,,,,,,,
,,850303,001,2023-07-31_20h43.05.105,arm3_eps,2022.2.5,Win32,59.96282305,5f632ea32e85353d93872c67,64c7fed44a04f777bb1e18ce,64c80096a2334d1ce1c7ef74,right,-1,1,0.2429,2,0.017981042,0.1668,31,0,31,0,1,,,,,,,,,,
,,850303,001,2023-07-31_20h43.05.105,arm3_eps,2022.2.5,Win32,59.96282305,5f632ea32e85353d93872c67,64c7fed44a04f777bb1e18ce,64c80096a2334d1ce1c7ef74,right,-1,1,0.2429,2,0.013919352,0.1598,32,0,32,0,1,,,,,,,,,,
,,850303,001,2023-07-31_20h43.05.105,arm3_eps,2022.2.5,Win32,59.96282305,5f632ea32e85353d93872c67,64c7fed44a04f777bb1e18ce,64c80096a2334d1ce1c7ef74,right,-1,1,0.2429,2,0.014602752,0.1043,33,0,33,0,1,,,,,,,,,,
,,850303,001,2023-07-31_20h43.05.105,arm3_eps,2022.2.5,Win32,59.96282305,5f632ea32e85353d93872c67,64c7fed44a04f777bb1e18ce,64c80096a2334d1ce1c7ef74,right,-1,1,0.2429,2,0.048657956,0.1633,34,0,34,0,1,,,,,,,,,,
,,850303,001,2023-07-31_20h43.05.105,arm3_eps,2022.2.5,Win32,59.96282305,5f632ea32e85353d93872c67,64c7fed44a04f777bb1e18ce,64c80096a2334d1ce1c7ef74,right,-1,1,0.2429,2,0.071428178,0.1501,35,0,35,0,1,,,,,,,,,,
,,850303,001,2023-07-31_20h43.05.105,arm3_eps,2022.2.5,Win32,59.96282305,5f632ea32e85353d93872c67,64c7fed44a04f777bb1e18ce,64c80096a2334d1ce1c7ef74,right,-1,1,0.2429,2,0.038152123,0.1669,36,0,36,0,1,,,,,,,,,,
,,850303,001,2023-07-31_20h43.05.105,arm3_eps,2022.2.5,Win32,59.96282305,5f632ea32e85353d93872c67,64c7fed44a04f777bb1e18ce,64c80096a2334d1ce1c7ef74,right,-1,1,0.2429,2,0.039944812,0.167,37,0,37,0,1,,,,,,,,,,
,,850303,001,2023-07-31_20h43.05.105,arm3_eps,2022.2.5,Win32,59.96282305,5f632ea32e85353d93872c67,64c7fed44a04f777bb1e18ce,64c80096a2334d1ce1c7ef74,up,-1,1,0.2429,1,0,0.7336,38,0,38,0,1,,,,,,,,,,
,,850303,001,2023-07-31_20h43.05.105,arm3_eps,2022.2.5,Win32,59.96282305,5f632ea32e85353d93872c67,64c7fed44a04f777bb1e18ce,64c80096a2334d1ce1c7ef74,right,-1,1,0.2429,1,-0.058589264,2.7012,39,0,39,0,1,,,,,,,,,,
,,850303,001,2023-07-31_20h43.05.105,arm3_eps,2022.2.5,Win32,59.96282305,5f632ea32e85353d93872c67,64c7fed44a04f777bb1e18ce,64c80096a2334d1ce1c7ef74,right,-1,1,0.2429,1,-0.108246373,0.1659,40,0,40,0,1,,,,,,,,,,
,,850303,001,2023-07-31_20h43.05.105,arm3_eps,2022.2.5,Win32,59.96282305,5f632ea32e85353d93872c67,64c7fed44a04f777bb1e18ce,64c80096a2334d1ce1c7ef74,right,-1,1,0.2429,1,-0.126840932,0.1509,41,0,41,0,1,,,,,,,,,,
,,850303,001,2023-07-31_20h43.05.105,arm3_eps,2022.2.5,Win32,59.96282305,5f632ea32e85353d93872c67,64c7fed44a04f777bb1e18ce,64c80096a2334d1ce1c7ef74,right,-1,1,0.2429,1,-0.147907405,0.1337,42,0,42,0,1,,,,,,,,,,
,,850303,001,2023-07-31_20h43.05.105,arm3_eps,2022.2.5,Win32,59.96282305,5f632ea32e85353d93872c67,64c7fed44a04f777bb1e18ce,64c80096a2334d1ce1c7ef74,right,-1,1,0.2429,1,-0.165928954,0.1503,43,0,43,0,1,,,,,,,,,,
,,850303,001,2023-07-31_20h43.05.105,arm3_eps,2022.2.5,Win32,59.96282305,5f632ea32e85353d93872c67,64c7fed44a04f777bb1e18ce,64c80096a2334d1ce1c7ef74,right,-1,1,0.2429,1,-0.164211573,0.121,44,0,44,0,1,,,,,,,,,,
,,850303,001,2023-07-31_20h43.05.105,arm3_eps,2022.2.5,Win32,59.96282305,5f632ea32e85353d93872c67,64c7fed44a04f777bb1e18ce,64c80096a2334d1ce1c7ef74,right,-1,1,0.2429,1,-0.148693057,0.1003,45,0,45,0,1,,,,,,,,,,
,,850303,001,2023-07-31_20h43.05.105,arm3_eps,2022.2.5,Win32,59.96282305,5f632ea32e85353d93872c67,64c7fed44a04f777bb1e18ce,64c80096a2334d1ce1c7ef74,right,-1,1,0.2429,1,-0.165525921,0.1168,46,0,46,0,1,,,,,,,,,,
,,850303,001,2023-07-31_20h43.05.105,arm3_eps,2022.2.5,Win32,59.96282305,5f632ea32e85353d93872c67,64c7fed44a04f777bb1e18ce,64c80096a2334d1ce1c7ef74,right,-1,1,0.2429,1,-0.125543204,0.0981,47,0,47,0,1,,,,,,,,,,
,,850303,001,2023-07-31_20h43.05.105,arm3_eps,2022.2.5,Win32,59.96282305,5f632ea32e85353d93872c67,64c7fed44a04f777bb1e18ce,64c80096a2334d1ce1c7ef74,right,-1,1,0.2429,1,-0.125557551,0.1239,48,0,48,0,1,,,,,,,,,,
,,850303,001,2023-07-31_20h43.05.105,arm3_eps,2022.2.5,Win32,59.96282305,5f632ea32e85353d93872c67,64c7fed44a04f777bb1e18ce,64c80096a2334d1ce1c7ef74,right,-1,1,0.2429,1,-0.139461678,0.1168,49,0,49,0,1,,,,,,,,,,
space,22.9212,850303,001,2023-07-31_20h43.05.105,arm3_eps,2022.2.5,Win32,59.96282305,5f632ea32e85353d93872c67,64c7fed44a04f777bb1e18ce,64c80096a2334d1ce1c7ef74,,,,,,,,,,,,,,,,,,,,,,
space,19.3448,850303,001,2023-07-31_20h43.05.105,arm3_eps,2022.2.5,Win32,59.96282305,5f632ea32e85353d93872c67,64c7fed44a04f777bb1e18ce,64c80096a2334d1ce1c7ef74,,,,,,,,,,,,,,,,,,,,,,
space,17.347,850303,001,2023-07-31_20h43.05.105,arm3_eps,2022.2.5,Win32,59.96282305,5f632ea32e85353d93872c67,64c7fed44a04f777bb1e18ce,64c80096a2334d1ce1c7ef74,,,,,,,,,,,,,,,,,,,,,,
space,6.9334,850303,001,2023-07-31_20h43.05.105,arm3_eps,2022.2.5,Win32,59.96282305,5f632ea32e85353d93872c67,64c7fed44a04f777bb1e18ce,64c80096a2334d1ce1c7ef74,,,,,,,,,,,,,,,,,,,,,,
space,9.9676,850303,001,2023-07-31_20h43.05.105,arm3_eps,2022.2.5,Win32,59.96282305,5f632ea32e85353d93872c67,64c7fed44a04f777bb1e18ce,64c80096a2334d1ce1c7ef74,,,,,,,,,,,,,,,,,,,,,,
space,0.8709,850303,001,2023-07-31_20h43.05.105,arm3_eps,2022.2.5,Win32,59.96282305,5f632ea32e85353d93872c67,64c7fed44a04f777bb1e18ce,64c80096a2334d1ce1c7ef74,,,,,,,,,,,,,,,,,,,,,,
,,850303,001,2023-07-31_20h43.05.105,arm3_eps,2022.2.5,Win32,59.96282305,5f632ea32e85353d93872c67,64c7fed44a04f777bb1e18ce,64c80096a2334d1ce1c7ef74,right,-1,0.75,0.2429,0,0.012452777,0.6748,0,0,0,0,1,,,,,,,,,,
,,850303,001,2023-07-31_20h43.05.105,arm3_eps,2022.2.5,Win32,59.96282305,5f632ea32e85353d93872c67,64c7fed44a04f777bb1e18ce,64c80096a2334d1ce1c7ef74,down,-1,0.75,0.2429,1,0,0.9502,1,0,1,0,1,,,,,,,,,,
,,850303,001,2023-07-31_20h43.05.105,arm3_eps,2022.2.5,Win32,59.96282305,5f632ea32e85353d93872c67,64c7fed44a04f777bb1e18ce,64c80096a2334d1ce1c7ef74,right,-1,0.75,0.2429,1,0.011699034,1.7997,2,0,2,0,1,,,,,,,,,,
,,850303,001,2023-07-31_20h43.05.105,arm3_eps,2022.2.5,Win32,59.96282305,5f632ea32e85353d93872c67,64c7fed44a04f777bb1e18ce,64c80096a2334d1ce1c7ef74,right,-1,0.75,0.2429,1,0.023350948,0.5355,3,0,3,0,1,,,,,,,,,,
,,850303,001,2023-07-31_20h43.05.105,arm3_eps,2022.2.5,Win32,59.96282305,5f632ea32e85353d93872c67,64c7fed44a04f777bb1e18ce,64c80096a2334d1ce1c7ef74,down,-1,0.75,0.2429,1,0,1.2082,4,0,4,0,1,,,,,,,,,,
,,850303,001,2023-07-31_20h43.05.105,arm3_eps,2022.2.5,Win32,59.96282305,5f632ea32e85353d93872c67,64c7fed44a04f777bb1e18ce,64c80096a2334d1ce1c7ef74,right,-1,0.75,0.2429,1,-0.012946245,3.0671,5,0,5,0,1,,,,,,,,,,
,,850303,001,2023-07-31_20h43.05.105,arm3_eps,2022.2.5,Win32,59.96282305,5f632ea32e85353d93872c67,64c7fed44a04f777bb1e18ce,64c80096a2334d1ce1c7ef74,down,1,0.75,0.2429,1,0,1.5169,6,0,6,0,1,,,,,,,,,,
,,850303,001,2023-07-31_20h43.05.105,arm3_eps,2022.2.5,Win32,59.96282305,5f632ea32e85353d93872c67,64c7fed44a04f777bb1e18ce,64c80096a2334d1ce1c7ef74,right,1,0.75,0.2429,1,0.005103032,1.3343,7,0,7,0,1,,,,,,,,,,
,,850303,001,2023-07-31_20h43.05.105,arm3_eps,2022.2.5,Win32,59.96282305,5f632ea32e85353d93872c67,64c7fed44a04f777bb1e18ce,64c80096a2334d1ce1c7ef74,right,1,0.75,0.2429,1,-0.007519598,0.4835,8,0,8,0,1,,,,,,,,,,
,,850303,001,2023-07-31_20h43.05.105,arm3_eps,2022.2.5,Win32,59.96282305,5f632ea32e85353d93872c67,64c7fed44a04f777bb1e18ce,64c80096a2334d1ce1c7ef74,right,1,0.75,0.2429,1,0.044286097,0.3508,9,0,9,0,1,,,,,,,,,,
,,850303,001,2023-07-31_20h43.05.105,arm3_eps,2022.2.5,Win32,59.96282305,5f632ea32e85353d93872c67,64c7fed44a04f777bb1e18ce,64c80096a2334d1ce1c7ef74,up,-1,0.75,0.2429,2,0,0.6995,10,0,10,0,1,,,,,,,,,,
,,850303,001,2023-07-31_20h43.05.105,arm3_eps,2022.2.5,Win32,59.96282305,5f632ea32e85353d93872c67,64c7fed44a04f777bb1e18ce,64c80096a2334d1ce1c7ef74,right,-1,0.75,0.2429,2,-0.020525362,1.2337,11,0,11,0,1,,,,,,,,,,
,,850303,001,2023-07-31_20h43.05.105,arm3_eps,2022.2.5,Win32,59.96282305,5f632ea32e85353d93872c67,64c7fed44a04f777bb1e18ce,64c80096a2334d1ce1c7ef74,right,-1,0.75,0.2429,2,-0.033618009,0.3179,12,0,12,0,1,,,,,,,,,,
,,850303,001,2023-07-31_20h43.05.105,arm3_eps,2022.2.5,Win32,59.96282305,5f632ea32e85353d93872c67,64c7fed44a04f777bb1e18ce,64c80096a2334d1ce1c7ef74,right,-1,0.75,0.2429,2,-0.024137303,0.4166,13,0,13,0,1,,,,,,,,,,
,,850303,001,2023-07-31_20h43.05.105,arm3_eps,2022.2.5,Win32,59.96282305,5f632ea32e85353d93872c67,64c7fed44a04f777bb1e18ce,64c80096a2334d1ce1c7ef74,right,-1,0.75,0.2429,2,-0.015709496,0.5339,14,0,14,0,1,,,,,,,,,,
,,850303,001,2023-07-31_20h43.05.105,arm3_eps,2022.2.5,Win32,59.96282305,5f632ea32e85353d93872c67,64c7fed44a04f777bb1e18ce,64c80096a2334d1ce1c7ef74,right,-1,0.75,0.2429,2,-0.023876829,0.5214,15,0,15,0,1,,,,,,,,,,
,,850303,001,2023-07-31_20h43.05.105,arm3_eps,2022.2.5,Win32,59.96282305,5f632ea32e85353d93872c67,64c7fed44a04f777bb1e18ce,64c80096a2334d1ce1c7ef74,down,-1,0.75,0.2429,3,0,0.6167,16,0,16,0,1,,,,,,,,,,
,,850303,001,2023-07-31_20h43.05.105,arm3_eps,2022.2.5,Win32,59.96282305,5f632ea32e85353d93872c67,64c7fed44a04f777bb1e18ce,64c80096a2334d1ce1c7ef74,right,-1,0.75,0.2429,3,-0.01312303,2.6004,17,0,17,0,1,,,,,,,,,,
,,850303,001,2023-07-31_20h43.05.105,arm3_eps,2022.2.5,Win32,59.96282305,5f632ea32e85353d93872c67,64c7fed44a04f777bb1e18ce,64c80096a2334d1ce1c7ef74,right,-1,0.75,0.2429,3,-0.052599415,0.6675,18,0,18,0,1,,,,,,,,,,
,,850303,001,2023-07-31_20h43.05.105,arm3_eps,2022.2.5,Win32,59.96282305,5f632ea32e85353d93872c67,64c7fed44a04f777bb1e18ce,64c80096a2334d1ce1c7ef74,down,-1,0.75,0.2429,4,0,0.5333,19,0,19,0,1,,,,,,,,,,
,,850303,001,2023-07-31_20h43.05.105,arm3_eps,2022.2.5,Win32,59.96282305,5f632ea32e85353d93872c67,64c7fed44a04f777bb1e18ce,64c80096a2334d1ce1c7ef74,right,-1,0.75,0.2429,4,-0.013435573,1.6004,20,0,20,0,1,,,,,,,,,,
,,850303,001,2023-07-31_20h43.05.105,arm3_eps,2022.2.5,Win32,59.96282305,5f632ea32e85353d93872c67,64c7fed44a04f777bb1e18ce,64c80096a2334d1ce1c7ef74,right,-1,0.75,0.2429,4,9.20382E-05,0.575,21,0,21,0,1,,,,,,,,,,
,,850303,001,2023-07-31_20h43.05.105,arm3_eps,2022.2.5,Win32,59.96282305,5f632ea32e85353d93872c67,64c7fed44a04f777bb1e18ce,64c80096a2334d1ce1c7ef74,right,-1,0.75,0.2429,4,0.000102971,0.8335,22,0,22,0,1,,,,,,,,,,
,,850303,001,2023-07-31_20h43.05.105,arm3_eps,2022.2.5,Win32,59.96282305,5f632ea32e85353d93872c67,64c7fed44a04f777bb1e18ce,64c80096a2334d1ce1c7ef74,up,1,0.75,0.2429,3,0,0.9506,23,0,23,0,1,,,,,,,,,,
,,850303,001,2023-07-31_20h43.05.105,arm3_eps,2022.2.5,Win32,59.96282305,5f632ea32e85353d93872c67,64c7fed44a04f777bb1e18ce,64c80096a2334d1ce1c7ef74,right,1,0.75,0.2429,3,0.009198581,2.6062,24,0,24,0,1,,,,,,,,,,
,,850303,001,2023-07-31_20h43.05.105,arm3_eps,2022.2.5,Win32,59.96282305,5f632ea32e85353d93872c67,64c7fed44a04f777bb1e18ce,64c80096a2334d1ce1c7ef74,right,1,0.75,0.2429,3,0.019982753,0.4762,25,0,25,0,1,,,,,,,,,,
,,850303,001,2023-07-31_20h43.05.105,arm3_eps,2022.2.5,Win32,59.96282305,5f632ea32e85353d93872c67,64c7fed44a04f777bb1e18ce,64c80096a2334d1ce1c7ef74,up,-1,0.75,0.2429,4,0,0.5515,26,0,26,0,1,,,,,,,,,,
,,850303,001,2023-07-31_20h43.05.105,arm3_eps,2022.2.5,Win32,59.96282305,5f632ea32e85353d93872c67,64c7fed44a04f777bb1e18ce,64c80096a2334d1ce1c7ef74,right,-1,0.75,0.2429,4,-0.014877785,1.8665,27,0,27,0,1,,,,,,,,,,
,,850303,001,2023-07-31_20h43.05.105,arm3_eps,2022.2.5,Win32,59.96282305,5f632ea32e85353d93872c67,64c7fed44a04f777bb1e18ce,64c80096a2334d1ce1c7ef74,right,-1,0.75,0.2429,4,-0.02761983,0.3499,28,0,28,0,1,,,,,,,,,,
,,850303,001,2023-07-31_20h43.05.105,arm3_eps,2022.2.5,Win32,59.96282305,5f632ea32e85353d93872c67,64c7fed44a04f777bb1e18ce,64c80096a2334d1ce1c7ef74,right,-1,0.75,0.2429,4,-0.011194477,0.4683,29,0,29,0,1,,,,,,,,,,
,,850303,001,2023-07-31_20h43.05.105,arm3_eps,2022.2.5,Win32,59.96282305,5f632ea32e85353d93872c67,64c7fed44a04f777bb1e18ce,64c80096a2334d1ce1c7ef74,right,-1,0.75,0.2429,4,-0.034078807,0.4172,30,0,30,0,1,,,,,,,,,,
,,850303,001,2023-07-31_20h43.05.105,arm3_eps,2022.2.5,Win32,59.96282305,5f632ea32e85353d93872c67,64c7fed44a04f777bb1e18ce,64c80096a2334d1ce1c7ef74,right,-1,0.75,0.2429,4,-0.069195655,0.4032,31,0,31,0,1,,,,,,,,,,
,,850303,001,2023-07-31_20h43.05.105,arm3_eps,2022.2.5,Win32,59.96282305,5f632ea32e85353d93872c67,64c7fed44a04f777bb1e18ce,64c80096a2334d1ce1c7ef74,down,-1,0.75,0.2429,5,0,0.4671,32,0,32,0,1,,,,,,,,,,
,,850303,001,2023-07-31_20h43.05.105,arm3_eps,2022.2.5,Win32,59.96282305,5f632ea32e85353d93872c67,64c7fed44a04f777bb1e18ce,64c80096a2334d1ce1c7ef74,right,-1,0.75,0.2429,5,0.020983461,1.5837,33,0,33,0,1,,,,,,,,,,
,,850303,001,2023-07-31_20h43.05.105,arm3_eps,2022.2.5,Win32,59.96282305,5f632ea32e85353d93872c67,64c7fed44a04f777bb1e18ce,64c80096a2334d1ce1c7ef74,right,-1,0.75,0.2429,5,0.004709387,0.3506,34,0,34,0,1,,,,,,,,,,
,,850303,001,2023-07-31_20h43.05.105,arm3_eps,2022.2.5,Win32,59.96282305,5f632ea32e85353d93872c67,64c7fed44a04f777bb1e18ce,64c80096a2334d1ce1c7ef74,right,-1,0.75,0.2429,5,0.016222996,0.3338,35,0,35,0,1,,,,,,,,,,
,,850303,001,2023-07-31_20h43.05.105,arm3_eps,2022.2.5,Win32,59.96282305,5f632ea32e85353d93872c67,64c7fed44a04f777bb1e18ce,64c80096a2334d1ce1c7ef74,right,-1,0.75,0.2429,5,0.000967169,0.4179,36,0,36,0,1,,,,,,,,,,
,,850303,001,2023-07-31_20h43.05.105,arm3_eps,2022.2.5,Win32,59.96282305,5f632ea32e85353d93872c67,64c7fed44a04f777bb1e18ce,64c80096a2334d1ce1c7ef74,right,-1,0.75,0.2429,5,-0.019625607,0.5667,37,0,37,0,1,,,,,,,,,,
,,850303,001,2023-07-31_20h43.05.105,arm3_eps,2022.2.5,Win32,59.96282305,5f632ea32e85353d93872c67,64c7fed44a04f777bb1e18ce,64c80096a2334d1ce1c7ef74,right,-1,0.75,0.2429,5,0.004022042,0.3842,38,0,38,0,1,,,,,,,,,,
,,850303,001,2023-07-31_20h43.05.105,arm3_eps,2022.2.5,Win32,59.96282305,5f632ea32e85353d93872c67,64c7fed44a04f777bb1e18ce,64c80096a2334d1ce1c7ef74,right,-1,0.75,0.2429,5,-0.012947731,0.3837,39,0,39,0,1,,,,,,,,,,
,,850303,001,2023-07-31_20h43.05.105,arm3_eps,2022.2.5,Win32,59.96282305,5f632ea32e85353d93872c67,64c7fed44a04f777bb1e18ce,64c80096a2334d1ce1c7ef74,right,-1,0.75,0.2429,5,-0.030411281,0.5188,40,0,40,0,1,,,,,,,,,,
,,850303,001,2023-07-31_20h43.05.105,arm3_eps,2022.2.5,Win32,59.96282305,5f632ea32e85353d93872c67,64c7fed44a04f777bb1e18ce,64c80096a2334d1ce1c7ef74,down,1,0.75,0.2429,6,0,0.5217,41,0,41,0,1,,,,,,,,,,
,,850303,001,2023-07-31_20h43.05.105,arm3_eps,2022.2.5,Win32,59.96282305,5f632ea32e85353d93872c67,64c7fed44a04f777bb1e18ce,64c80096a2334d1ce1c7ef74,right,1,0.75,0.2429,6,0.000253778,1.6353,42,0,42,0,1,,,,,,,,,,
,,850303,001,2023-07-31_20h43.05.105,arm3_eps,2022.2.5,Win32,59.96282305,5f632ea32e85353d93872c67,64c7fed44a04f777bb1e18ce,64c80096a2334d1ce1c7ef74,right,1,0.75,0.2429,6,0.021459883,0.5829,43,0,43,0,1,,,,,,,,,,
,,850303,001,2023-07-31_20h43.05.105,arm3_eps,2022.2.5,Win32,59.96282305,5f632ea32e85353d93872c67,64c7fed44a04f777bb1e18ce,64c80096a2334d1ce1c7ef74,right,1,0.75,0.2429,6,0.036653112,0.673,44,0,44,0,1,,,,,,,,,,
,,850303,001,2023-07-31_20h43.05.105,arm3_eps,2022.2.5,Win32,59.96282305,5f632ea32e85353d93872c67,64c7fed44a04f777bb1e18ce,64c80096a2334d1ce1c7ef74,up,1,0.75,0.2429,6,0,0.6329,45,0,45,0,1,,,,,,,,,,
,,850303,001,2023-07-31_20h43.05.105,arm3_eps,2022.2.5,Win32,59.96282305,5f632ea32e85353d93872c67,64c7fed44a04f777bb1e18ce,64c80096a2334d1ce1c7ef74,right,1,0.75,0.2429,6,-0.005528243,1.4174,46,0,46,0,1,,,,,,,,,,
,,850303,001,2023-07-31_20h43.05.105,arm3_eps,2022.2.5,Win32,59.96282305,5f632ea32e85353d93872c67,64c7fed44a04f777bb1e18ce,64c80096a2334d1ce1c7ef74,right,1,0.75,0.2429,6,0.00375139,0.317,47,0,47,0,1,,,,,,,,,,
,,850303,001,2023-07-31_20h43.05.105,arm3_eps,2022.2.5,Win32,59.96282305,5f632ea32e85353d93872c67,64c7fed44a04f777bb1e18ce,64c80096a2334d1ce1c7ef74,right,1,0.75,0.2429,6,-0.007268303,1.4168,48,0,48,0,1,,,,,,,,,,
,,850303,001,2023-07-31_20h43.05.105,arm3_eps,2022.2.5,Win32,59.96282305,5f632ea32e85353d93872c67,64c7fed44a04f777bb1e18ce,64c80096a2334d1ce1c7ef74,right,1,0.75,0.2429,6,0.015531326,0.6183,49,0,49,0,1,,,,,,,,,,
space,22.9077,850303,001,2023-07-31_20h43.05.105,arm3_eps,2022.2.5,Win32,59.96282305,5f632ea32e85353d93872c67,64c7fed44a04f777bb1e18ce,64c80096a2334d1ce1c7ef74,,,,,,,,,,,,,,,,,,,,,,
space,0.1835,850303,001,2023-07-31_20h43.05.105,arm3_eps,2022.2.5,Win32,59.96282305,5f632ea32e85353d93872c67,64c7fed44a04f777bb1e18ce,64c80096a2334d1ce1c7ef74,,,,,,,,,,,,,,,,,,,,,,
space,0.9503,850303,001,2023-07-31_20h43.05.105,arm3_eps,2022.2.5,Win32,59.96282305,5f632ea32e85353d93872c67,64c7fed44a04f777bb1e18ce,64c80096a2334d1ce1c7ef74,,,,,,,,,,,,,,,,,,,,,,
,,850303,001,2023-07-31_20h43.05.105,arm3_eps,2022.2.5,Win32,59.96282305,5f632ea32e85353d93872c67,64c7fed44a04f777bb1e18ce,64c80096a2334d1ce1c7ef74,right,1,0.75,0.05,0,-0.013547742,1.3506,0,0,0,0,1,,,,,,,,,,
,,850303,001,2023-07-31_20h43.05.105,arm3_eps,2022.2.5,Win32,59.96282305,5f632ea32e85353d93872c67,64c7fed44a04f777bb1e18ce,64c80096a2334d1ce1c7ef74,right,1,0.75,0.05,0,-0.015885445,0.3833,1,0,1,0,1,,,,,,,,,,
,,850303,001,2023-07-31_20h43.05.105,arm3_eps,2022.2.5,Win32,59.96282305,5f632ea32e85353d93872c67,64c7fed44a04f777bb1e18ce,64c80096a2334d1ce1c7ef74,right,1,0.75,0.05,0,0.003106534,0.3675,2,0,2,0,1,,,,,,,,,,
,,850303,001,2023-07-31_20h43.05.105,arm3_eps,2022.2.5,Win32,59.96282305,5f632ea32e85353d93872c67,64c7fed44a04f777bb1e18ce,64c80096a2334d1ce1c7ef74,right,1,0.75,0.05,0,0.001079728,1.2785,3,0,3,0,1,,,,,,,,,,
,,850303,001,2023-07-31_20h43.05.105,arm3_eps,2022.2.5,Win32,59.96282305,5f632ea32e85353d93872c67,64c7fed44a04f777bb1e18ce,64c80096a2334d1ce1c7ef74,right,1,0.75,0.05,0,-0.002407321,0.4097,4,0,4,0,1,,,,,,,,,,
,,850303,001,2023-07-31_20h43.05.105,arm3_eps,2022.2.5,Win32,59.96282305,5f632ea32e85353d93872c67,64c7fed44a04f777bb1e18ce,64c80096a2334d1ce1c7ef74,right,1,0.75,0.05,0,0.002774391,0.3502,5,0,5,0,1,,,,,,,,,,
,,850303,001,2023-07-31_20h43.05.105,arm3_eps,2022.2.5,Win32,59.96282305,5f632ea32e85353d93872c67,64c7fed44a04f777bb1e18ce,64c80096a2334d1ce1c7ef74,right,1,0.75,0.05,0,0.015823727,0.4007,6,0,6,0,1,,,,,,,,,,
,,850303,001,2023-07-31_20h43.05.105,arm3_eps,2022.2.5,Win32,59.96282305,5f632ea32e85353d93872c67,64c7fed44a04f777bb1e18ce,64c80096a2334d1ce1c7ef74,right,1,0.75,0.05,0,0.034587728,0.3671,7,0,7,0,1,,,,,,,,,,
,,850303,001,2023-07-31_20h43.05.105,arm3_eps,2022.2.5,Win32,59.96282305,5f632ea32e85353d93872c67,64c7fed44a04f777bb1e18ce,64c80096a2334d1ce1c7ef74,right,1,0.75,0.05,0,0.057072876,0.1862,8,0,8,0,1,,,,,,,,,,
,,850303,001,2023-07-31_20h43.05.105,arm3_eps,2022.2.5,Win32,59.96282305,5f632ea32e85353d93872c67,64c7fed44a04f777bb1e18ce,64c80096a2334d1ce1c7ef74,right,1,0.75,0.05,0,0.093753914,0.2095,9,0,9,0,1,,,,,,,,,,
,,850303,001,2023-07-31_20h43.05.105,arm3_eps,2022.2.5,Win32,59.96282305,5f632ea32e85353d93872c67,64c7fed44a04f777bb1e18ce,64c80096a2334d1ce1c7ef74,right,1,0.75,0.05,0,0.084511917,0.3201,10,0,10,0,1,,,,,,,,,,
,,850303,001,2023-07-31_20h43.05.105,arm3_eps,2022.2.5,Win32,59.96282305,5f632ea32e85353d93872c67,64c7fed44a04f777bb1e18ce,64c80096a2334d1ce1c7ef74,right,1,0.75,0.05,0,0.074368401,0.2837,11,0,11,0,1,,,,,,,,,,
,,850303,001,2023-07-31_20h43.05.105,arm3_eps,2022.2.5,Win32,59.96282305,5f632ea32e85353d93872c67,64c7fed44a04f777bb1e18ce,64c80096a2334d1ce1c7ef74,up,1,0.75,0.05,1,0,1.3343,12,0,12,0,1,,,,,,,,,,
,,850303,001,2023-07-31_20h43.05.105,arm3_eps,2022.2.5,Win32,59.96282305,5f632ea32e85353d93872c67,64c7fed44a04f777bb1e18ce,64c80096a2334d1ce1c7ef74,right,1,0.75,0.05,1,-0.00103255,1.317,13,0,13,0,1,,,,,,,,,,
,,850303,001,2023-07-31_20h43.05.105,arm3_eps,2022.2.5,Win32,59.96282305,5f632ea32e85353d93872c67,64c7fed44a04f777bb1e18ce,64c80096a2334d1ce1c7ef74,right,1,0.75,0.05,1,0.014891279,0.4831,14,0,14,0,1,,,,,,,,,,
,,850303,001,2023-07-31_20h43.05.105,arm3_eps,2022.2.5,Win32,59.96282305,5f632ea32e85353d93872c67,64c7fed44a04f777bb1e18ce,64c80096a2334d1ce1c7ef74,up,1,0.75,0.05,2,0,0.817,15,0,15,0,1,,,,,,,,,,
,,850303,001,2023-07-31_20h43.05.105,arm3_eps,2022.2.5,Win32,59.96282305,5f632ea32e85353d93872c67,64c7fed44a04f777bb1e18ce,64c80096a2334d1ce1c7ef74,up,1,0.75,0.05,3,0,1.1837,16,0,16,0,1,,,,,,,,,,
,,850303,001,2023-07-31_20h43.05.105,arm3_eps,2022.2.5,Win32,59.96282305,5f632ea32e85353d93872c67,64c7fed44a04f777bb1e18ce,64c80096a2334d1ce1c7ef74,up,-1,0.75,0.05,4,0,1.4665,17,0,17,0,1,,,,,,,,,,
,,850303,001,2023-07-31_20h43.05.105,arm3_eps,2022.2.5,Win32,59.96282305,5f632ea32e85353d93872c67,64c7fed44a04f777bb1e18ce,64c80096a2334d1ce1c7ef74,up,-1,0.75,0.05,3,0,1.5172,18,0,18,0,1,,,,,,,,,,
,,850303,001,2023-07-31_20h43.05.105,arm3_eps,2022.2.5,Win32,59.96282305,5f632ea32e85353d93872c67,64c7fed44a04f777bb1e18ce,64c80096a2334d1ce1c7ef74,right,-1,0.75,0.05,3,-0.003449432,1.5169,19,0,19,0,1,,,,,,,,,,
,,850303,001,2023-07-31_20h43.05.105,arm3_eps,2022.2.5,Win32,59.96282305,5f632ea32e85353d93872c67,64c7fed44a04f777bb1e18ce,64c80096a2334d1ce1c7ef74,right,-1,0.75,0.05,3,-0.017338443,0.4335,20,0,20,0,1,,,,,,,,,,
,,850303,001,2023-07-31_20h43.05.105,arm3_eps,2022.2.5,Win32,59.96282305,5f632ea32e85353d93872c67,64c7fed44a04f777bb1e18ce,64c80096a2334d1ce1c7ef74,right,-1,0.75,0.05,3,-0.041996629,0.3495,21,0,21,0,1,,,,,,,,,,
,,850303,001,2023-07-31_20h43.05.105,arm3_eps,2022.2.5,Win32,59.96282305,5f632ea32e85353d93872c67,64c7fed44a04f777bb1e18ce,64c80096a2334d1ce1c7ef74,down,-1,0.75,0.05,4,0,0.4837,22,0,22,0,1,,,,,,,,,,
,,850303,001,2023-07-31_20h43.05.105,arm3_eps,2022.2.5,Win32,59.96282305,5f632ea32e85353d93872c67,64c7fed44a04f777bb1e18ce,64c80096a2334d1ce1c7ef74,right,-1,0.75,0.05,4,-0.016780694,1.5849,23,0,23,0,1,,,,,,,,,,
,,850303,001,2023-07-31_20h43.05.105,arm3_eps,2022.2.5,Win32,59.96282305,5f632ea32e85353d93872c67,64c7fed44a04f777bb1e18ce,64c80096a2334d1ce1c7ef74,right,-1,0.75,0.05,4,-0.018956423,3.2671,24,0,24,0,1,,,,,,,,,,
,,850303,001,2023-07-31_20h43.05.105,arm3_eps,2022.2.5,Win32,59.96282305,5f632ea32e85353d93872c67,64c7fed44a04f777bb1e18ce,64c80096a2334d1ce1c7ef74,right,-1,0.75,0.05,4,-0.031664783,0.3339,25,0,25,0,1,,,,,,,,,,
,,850303,001,2023-07-31_20h43.05.105,arm3_eps,2022.2.5,Win32,59.96282305,5f632ea32e85353d93872c67,64c7fed44a04f777bb1e18ce,64c80096a2334d1ce1c7ef74,right,-1,0.75,0.05,4,-0.026152174,0.8842,26,0,26,0,1,,,,,,,,,,
,,850303,001,2023-07-31_20h43.05.105,arm3_eps,2022.2.5,Win32,59.96282305,5f632ea32e85353d93872c67,64c7fed44a04f777bb1e18ce,64c80096a2334d1ce1c7ef74,right,-1,0.75,0.05,4,-0.047773716,0.356,27,0,27,0,1,,,,,,,,,,
,,850303,001,2023-07-31_20h43.05.105,arm3_eps,2022.2.5,Win32,59.96282305,5f632ea32e85353d93872c67,64c7fed44a04f777bb1e18ce,64c80096a2334d1ce1c7ef74,down,-1,0.75,0.05,5,0,0.3673,28,0,28,0,1,,,,,,,,,,
,,850303,001,2023-07-31_20h43.05.105,arm3_eps,2022.2.5,Win32,59.96282305,5f632ea32e85353d93872c67,64c7fed44a04f777bb1e18ce,64c80096a2334d1ce1c7ef74,right,-1,0.75,0.05,5,-0.000531978,0.9581,29,0,29,0,1,,,,,,,,,,
,,850303,001,2023-07-31_20h43.05.105,arm3_eps,2022.2.5,Win32,59.96282305,5f632ea32e85353d93872c67,64c7fed44a04f777bb1e18ce,64c80096a2334d1ce1c7ef74,right,-1,0.75,0.05,5,-0.002832318,0.3174,30,0,30,0,1,,,,,,,,,,
,,850303,001,2023-07-31_20h43.05.105,arm3_eps,2022.2.5,Win32,59.96282305,5f632ea32e85353d93872c67,64c7fed44a04f777bb1e18ce,64c80096a2334d1ce1c7ef74,right,-1,0.75,0.05,5,-0.0016452,0.283,31,0,31,0,1,,,,,,,,,,
,,850303,001,2023-07-31_20h43.05.105,arm3_eps,2022.2.5,Win32,59.96282305,5f632ea32e85353d93872c67,64c7fed44a04f777bb1e18ce,64c80096a2334d1ce1c7ef74,right,-1,0.75,0.05,5,-0.013797731,0.3339,32,0,32,0,1,,,,,,,,,,
,,850303,001,2023-07-31_20h43.05.105,arm3_eps,2022.2.5,Win32,59.96282305,5f632ea32e85353d93872c67,64c7fed44a04f777bb1e18ce,64c80096a2334d1ce1c7ef74,right,-1,0.75,0.05,5,-0.020165352,0.3336,33,0,33,0,1,,,,,,,,,,
,,850303,001,2023-07-31_20h43.05.105,arm3_eps,2022.2.5,Win32,59.96282305,5f632ea32e85353d93872c67,64c7fed44a04f777bb1e18ce,64c80096a2334d1ce1c7ef74,right,-1,0.75,0.05,5,-0.027401282,0.3372,34,0,34,0,1,,,,,,,,,,
,,850303,001,2023-07-31_20h43.05.105,arm3_eps,2022.2.5,Win32,59.96282305,5f632ea32e85353d93872c67,64c7fed44a04f777bb1e18ce,64c80096a2334d1ce1c7ef74,down,1,0.75,0.05,6,0,0.6496,35,0,35,0,1,,,,,,,,,,
,,850303,001,2023-07-31_20h43.05.105,arm3_eps,2022.2.5,Win32,59.96282305,5f632ea32e85353d93872c67,64c7fed44a04f777bb1e18ce,64c80096a2334d1ce1c7ef74,right,1,0.75,0.05,6,0.027341551,1.1446,36,0,36,0,1,,,,,,,,,,
,,850303,001,2023-07-31_20h43.05.105,arm3_eps,2022.2.5,Win32,59.96282305,5f632ea32e85353d93872c67,64c7fed44a04f777bb1e18ce,64c80096a2334d1ce1c7ef74,right,1,0.75,0.05,6,0.01946175,0.4252,37,0,37,0,1,,,,,,,,,,
,,850303,001,2023-07-31_20h43.05.105,arm3_eps,2022.2.5,Win32,59.96282305,5f632ea32e85353d93872c67,64c7fed44a04f777bb1e18ce,64c80096a2334d1ce1c7ef74,right,1,0.75,0.05,6,0.023221821,0.2234,38,0,38,0,1,,,,,,,,,,
,,850303,001,2023-07-31_20h43.05.105,arm3_eps,2022.2.5,Win32,59.96282305,5f632ea32e85353d93872c67,64c7fed44a04f777bb1e18ce,64c80096a2334d1ce1c7ef74,right,1,0.75,0.05,6,-0.008647673,0.3258,39,0,39,0,1,,,,,,,,,,
,,850303,001,2023-07-31_20h43.05.105,arm3_eps,2022.2.5,Win32,59.96282305,5f632ea32e85353d93872c67,64c7fed44a04f777bb1e18ce,64c80096a2334d1ce1c7ef74,right,1,0.75,0.05,6,-0.013498514,0.5495,40,0,40,0,1,,,,,,,,,,
,,850303,001,2023-07-31_20h43.05.105,arm3_eps,2022.2.5,Win32,59.96282305,5f632ea32e85353d93872c67,64c7fed44a04f777bb1e18ce,64c80096a2334d1ce1c7ef74,right,1,0.75,0.05,6,0.007029213,0.3005,41,0,41,0,1,,,,,,,,,,
,,850303,001,2023-07-31_20h43.05.105,arm3_eps,2022.2.5,Win32,59.96282305,5f632ea32e85353d93872c67,64c7fed44a04f777bb1e18ce,64c80096a2334d1ce1c7ef74,up,1,0.75,0.05,6,0,0.8441,42,0,42,0,1,,,,,,,,,,
,,850303,001,2023-07-31_20h43.05.105,arm3_eps,2022.2.5,Win32,59.96282305,5f632ea32e85353d93872c67,64c7fed44a04f777bb1e18ce,64c80096a2334d1ce1c7ef74,right,1,0.75,0.05,6,0.023227314,1.2347,43,0,43,0,1,,,,,,,,,,
,,850303,001,2023-07-31_20h43.05.105,arm3_eps,2022.2.5,Win32,59.96282305,5f632ea32e85353d93872c67,64c7fed44a04f777bb1e18ce,64c80096a2334d1ce1c7ef74,right,1,0.75,0.05,6,0.011112713,0.5006,44,0,44,0,1,,,,,,,,,,
,,850303,001,2023-07-31_20h43.05.105,arm3_eps,2022.2.5,Win32,59.96282305,5f632ea32e85353d93872c67,64c7fed44a04f777bb1e18ce,64c80096a2334d1ce1c7ef74,right,1,0.75,0.05,6,0.029528219,0.584,45,0,45,0,1,,,,,,,,,,
,,850303,001,2023-07-31_20h43.05.105,arm3_eps,2022.2.5,Win32,59.96282305,5f632ea32e85353d93872c67,64c7fed44a04f777bb1e18ce,64c80096a2334d1ce1c7ef74,up,-1,0.75,0.05,6,0,0.5669,46,0,46,0,1,,,,,,,,,,
,,850303,001,2023-07-31_20h43.05.105,arm3_eps,2022.2.5,Win32,59.96282305,5f632ea32e85353d93872c67,64c7fed44a04f777bb1e18ce,64c80096a2334d1ce1c7ef74,right,-1,0.75,0.05,6,-0.00978712,1.5173,47,0,47,0,1,,,,,,,,,,
,,850303,001,2023-07-31_20h43.05.105,arm3_eps,2022.2.5,Win32,59.96282305,5f632ea32e85353d93872c67,64c7fed44a04f777bb1e18ce,64c80096a2334d1ce1c7ef74,right,-1,0.75,0.05,6,0.00163469,1.167,48,0,48,0,1,,,,,,,,,,
,,850303,001,2023-07-31_20h43.05.105,arm3_eps,2022.2.5,Win32,59.96282305,5f632ea32e85353d93872c67,64c7fed44a04f777bb1e18ce,64c80096a2334d1ce1c7ef74,up,-1,0.75,0.05,6,0.00163469,0.8174,49,0,49,0,1,,,,,,,,,,
space,27.6135,850303,001,2023-07-31_20h43.05.105,arm3_eps,2022.2.5,Win32,59.96282305,5f632ea32e85353d93872c67,64c7fed44a04f777bb1e18ce,64c80096a2334d1ce1c7ef74,,,,,,,,,,,,,,,,,,,,,,
space,0.9379,850303,001,2023-07-31_20h43.05.105,arm3_eps,2022.2.5,Win32,59.96282305,5f632ea32e85353d93872c67,64c7fed44a04f777bb1e18ce,64c80096a2334d1ce1c7ef74,,,,,,,,,,,,,,,,,,,,,,
,,850303,001,2023-07-31_20h43.05.105,arm3_eps,2022.2.5,Win32,59.96282305,5f632ea32e85353d93872c67,64c7fed44a04f777bb1e18ce,64c80096a2334d1ce1c7ef74,right,-1,0.75,0.5,0,0.00551131,0.6626,0,0,0,0,1,,,,,,,,,,
,,850303,001,2023-07-31_20h43.05.105,arm3_eps,2022.2.5,Win32,59.96282305,5f632ea32e85353d93872c67,64c7fed44a04f777bb1e18ce,64c80096a2334d1ce1c7ef74,right,-1,0.75,0.5,0,0.000499305,0.391,1,0,1,0,1,,,,,,,,,,
,,850303,001,2023-07-31_20h43.05.105,arm3_eps,2022.2.5,Win32,59.96282305,5f632ea32e85353d93872c67,64c7fed44a04f777bb1e18ce,64c80096a2334d1ce1c7ef74,right,-1,0.75,0.5,0,0.024048462,0.3832,2,0,2,0,1,,,,,,,,,,
,,850303,001,2023-07-31_20h43.05.105,arm3_eps,2022.2.5,Win32,59.96282305,5f632ea32e85353d93872c67,64c7fed44a04f777bb1e18ce,64c80096a2334d1ce1c7ef74,right,-1,0.75,0.5,0,0.041208136,0.4068,3,0,3,0,1,,,,,,,,,,
,,850303,001,2023-07-31_20h43.05.105,arm3_eps,2022.2.5,Win32,59.96282305,5f632ea32e85353d93872c67,64c7fed44a04f777bb1e18ce,64c80096a2334d1ce1c7ef74,right,-1,0.75,0.5,0,0.037843249,0.3968,4,0,4,0,1,,,,,,,,,,
,,850303,001,2023-07-31_20h43.05.105,arm3_eps,2022.2.5,Win32,59.96282305,5f632ea32e85353d93872c67,64c7fed44a04f777bb1e18ce,64c80096a2334d1ce1c7ef74,right,-1,0.75,0.5,0,0.061306896,0.3575,5,0,5,0,1,,,,,,,,,,
,,850303,001,2023-07-31_20h43.05.105,arm3_eps,2022.2.5,Win32,59.96282305,5f632ea32e85353d93872c67,64c7fed44a04f777bb1e18ce,64c80096a2334d1ce1c7ef74,down,1,0.75,0.5,1,0,0.7345,6,0,6,0,1,,,,,,,,,,
,,850303,001,2023-07-31_20h43.05.105,arm3_eps,2022.2.5,Win32,59.96282305,5f632ea32e85353d93872c67,64c7fed44a04f777bb1e18ce,64c80096a2334d1ce1c7ef74,right,1,0.75,0.5,1,-0.013307085,1.2073,7,0,7,0,1,,,,,,,,,,
,,850303,001,2023-07-31_20h43.05.105,arm3_eps,2022.2.5,Win32,59.96282305,5f632ea32e85353d93872c67,64c7fed44a04f777bb1e18ce,64c80096a2334d1ce1c7ef74,right,1,0.75,0.5,1,0.022153828,0.4149,8,0,8,0,1,,,,,,,,,,
,,850303,001,2023-07-31_20h43.05.105,arm3_eps,2022.2.5,Win32,59.96282305,5f632ea32e85353d93872c67,64c7fed44a04f777bb1e18ce,64c80096a2334d1ce1c7ef74,up,-1,0.75,0.5,2,0,0.6308,9,0,9,0,1,,,,,,,,,,
,,850303,001,2023-07-31_20h43.05.105,arm3_eps,2022.2.5,Win32,59.96282305,5f632ea32e85353d93872c67,64c7fed44a04f777bb1e18ce,64c80096a2334d1ce1c7ef74,right,-1,0.75,0.5,2,0.020255782,0.7702,10,0,10,0,1,,,,,,,,,,
,,850303,001,2023-07-31_20h43.05.105,arm3_eps,2022.2.5,Win32,59.96282305,5f632ea32e85353d93872c67,64c7fed44a04f777bb1e18ce,64c80096a2334d1ce1c7ef74,right,-1,0.75,0.5,2,0.017149039,0.4135,11,0,11,0,1,,,,,,,,,,
,,850303,001,2023-07-31_20h43.05.105,arm3_eps,2022.2.5,Win32,59.96282305,5f632ea32e85353d93872c67,64c7fed44a04f777bb1e18ce,64c80096a2334d1ce1c7ef74,right,-1,0.75,0.5,2,0.014123478,0.5405,12,0,12,0,1,,,,,,,,,,
,,850303,001,2023-07-31_20h43.05.105,arm3_eps,2022.2.5,Win32,59.96282305,5f632ea32e85353d93872c67,64c7fed44a04f777bb1e18ce,64c80096a2334d1ce1c7ef74,right,-1,0.75,0.5,2,0.001975255,0.6649,13,0,13,0,1,,,,,,,,,,
,,850303,001,2023-07-31_20h43.05.105,arm3_eps,2022.2.5,Win32,59.96282305,5f632ea32e85353d93872c67,64c7fed44a04f777bb1e18ce,64c80096a2334d1ce1c7ef74,right,-1,0.75,0.5,2,-0.027673635,0.4188,14,0,14,0,1,,,,,,,,,,
,,850303,001,2023-07-31_20h43.05.105,arm3_eps,2022.2.5,Win32,59.96282305,5f632ea32e85353d93872c67,64c7fed44a04f777bb1e18ce,64c80096a2334d1ce1c7ef74,down,1,0.75,0.5,3,0,0.5536,15,0,15,0,1,,,,,,,,,,
,,850303,001,2023-07-31_20h43.05.105,arm3_eps,2022.2.5,Win32,59.96282305,5f632ea32e85353d93872c67,64c7fed44a04f777bb1e18ce,64c80096a2334d1ce1c7ef74,right,1,0.75,0.5,3,-0.001906583,0.9616,16,0,16,0,1,,,,,,,,,,
,,850303,001,2023-07-31_20h43.05.105,arm3_eps,2022.2.5,Win32,59.96282305,5f632ea32e85353d93872c67,64c7fed44a04f777bb1e18ce,64c80096a2334d1ce1c7ef74,right,1,0.75,0.5,3,-0.012231607,0.4515,17,0,17,0,1,,,,,,,,,,
,,850303,001,2023-07-31_20h43.05.105,arm3_eps,2022.2.5,Win32,59.96282305,5f632ea32e85353d93872c67,64c7fed44a04f777bb1e18ce,64c80096a2334d1ce1c7ef74,right,1,0.75,0.5,3,-0.00061757,0.3932,18,0,18,0,1,,,,,,,,,,
,,850303,001,2023-07-31_20h43.05.105,arm3_eps,2022.2.5,Win32,59.96282305,5f632ea32e85353d93872c67,64c7fed44a04f777bb1e18ce,64c80096a2334d1ce1c7ef74,right,1,0.75,0.5,3,-0.011999772,0.2575,19,0,19,0,1,,,,,,,,,,
,,850303,001,2023-07-31_20h43.05.105,arm3_eps,2022.2.5,Win32,59.96282305,5f632ea32e85353d93872c67,64c7fed44a04f777bb1e18ce,64c80096a2334d1ce1c7ef74,right,1,0.75,0.5,3,-0.001934487,0.2539,20,0,20,0,1,,,,,,,,,,
,,850303,001,2023-07-31_20h43.05.105,arm3_eps,2022.2.5,Win32,59.96282305,5f632ea32e85353d93872c67,64c7fed44a04f777bb1e18ce,64c80096a2334d1ce1c7ef74,right,1,0.75,0.5,3,0.023521259,0.2507,21,0,21,0,1,,,,,,,,,,
,,850303,001,2023-07-31_20h43.05.105,arm3_eps,2022.2.5,Win32,59.96282305,5f632ea32e85353d93872c67,64c7fed44a04f777bb1e18ce,64c80096a2334d1ce1c7ef74,right,1,0.75,0.5,3,0.029501244,0.3608,22,0,22,0,1,,,,,,,,,,
,,850303,001,2023-07-31_20h43.05.105,arm3_eps,2022.2.5,Win32,59.96282305,5f632ea32e85353d93872c67,64c7fed44a04f777bb1e18ce,64c80096a2334d1ce1c7ef74,up,-1,0.75,0.5,4,0,0.3943,23,0,23,0,1,,,,,,,,,,
,,850303,001,2023-07-31_20h43.05.105,arm3_eps,2022.2.5,Win32,59.96282305,5f632ea32e85353d93872c67,64c7fed44a04f777bb1e18ce,64c80096a2334d1ce1c7ef74,right,-1,0.75,0.5,4,0.01141967,0.8879,24,0,24,0,1,,,,,,,,,,
,,850303,001,2023-07-31_20h43.05.105,arm3_eps,2022.2.5,Win32,59.96282305,5f632ea32e85353d93872c67,64c7fed44a04f777bb1e18ce,64c80096a2334d1ce1c7ef74,right,-1,0.75,0.5,4,0.025195844,0.3732,25,0,25,0,1,,,,,,,,,,
,,850303,001,2023-07-31_20h43.05.105,arm3_eps,2022.2.5,Win32,59.96282305,5f632ea32e85353d93872c67,64c7fed44a04f777bb1e18ce,64c80096a2334d1ce1c7ef74,right,-1,0.75,0.5,4,0.040847077,0.5344,26,0,26,0,1,,,,,,,,,,
,,850303,001,2023-07-31_20h43.05.105,arm3_eps,2022.2.5,Win32,59.96282305,5f632ea32e85353d93872c67,64c7fed44a04f777bb1e18ce,64c80096a2334d1ce1c7ef74,up,1,0.75,0.5,3,0,0.4565,27,0,27,0,1,,,,,,,,,,
,,850303,001,2023-07-31_20h43.05.105,arm3_eps,2022.2.5,Win32,59.96282305,5f632ea32e85353d93872c67,64c7fed44a04f777bb1e18ce,64c80096a2334d1ce1c7ef74,right,1,0.75,0.5,3,0.004413569,1.084,28,0,28,0,1,,,,,,,,,,
,,850303,001,2023-07-31_20h43.05.105,arm3_eps,2022.2.5,Win32,59.96282305,5f632ea32e85353d93872c67,64c7fed44a04f777bb1e18ce,64c80096a2334d1ce1c7ef74,right,1,0.75,0.5,3,0.008238301,0.242,29,0,29,0,1,,,,,,,,,,
,,850303,001,2023-07-31_20h43.05.105,arm3_eps,2022.2.5,Win32,59.96282305,5f632ea32e85353d93872c67,64c7fed44a04f777bb1e18ce,64c80096a2334d1ce1c7ef74,right,1,0.75,0.5,3,-0.002620832,0.2162,30,0,30,0,1,,,,,,,,,,
,,850303,001,2023-07-31_20h43.05.105,arm3_eps,2022.2.5,Win32,59.96282305,5f632ea32e85353d93872c67,64c7fed44a04f777bb1e18ce,64c80096a2334d1ce1c7ef74,right,1,0.75,0.5,3,-0.0040658,0.2864,31,0,31,0,1,,,,,,,,,,
,,850303,001,2023-07-31_20h43.05.105,arm3_eps,2022.2.5,Win32,59.96282305,5f632ea32e85353d93872c67,64c7fed44a04f777bb1e18ce,64c80096a2334d1ce1c7ef74,right,1,0.75,0.5,3,-0.019669305,0.2987,32,0,32,0,1,,,,,,,,,,
,,850303,001,2023-07-31_20h43.05.105,arm3_eps,2022.2.5,Win32,59.96282305,5f632ea32e85353d93872c67,64c7fed44a04f777bb1e18ce,64c80096a2334d1ce1c7ef74,right,1,0.75,0.5,3,-0.004419875,0.3261,33,0,33,0,1,,,,,,,,,,
,,850303,001,2023-07-31_20h43.05.105,arm3_eps,2022.2.5,Win32,59.96282305,5f632ea32e85353d93872c67,64c7fed44a04f777bb1e18ce,64c80096a2334d1ce1c7ef74,right,1,0.75,0.5,3,0.000638609,0.2732,34,0,34,0,1,,,,,,,,,,
,,850303,001,2023-07-31_20h43.05.105,arm3_eps,2022.2.5,Win32,59.96282305,5f632ea32e85353d93872c67,64c7fed44a04f777bb1e18ce,64c80096a2334d1ce1c7ef74,right,1,0.75,0.5,3,0.015942673,0.2691,35,0,35,0,1,,,,,,,,,,
,,850303,001,2023-07-31_20h43.05.105,arm3_eps,2022.2.5,Win32,59.96282305,5f632ea32e85353d93872c67,64c7fed44a04f777bb1e18ce,64c80096a2334d1ce1c7ef74,right,1,0.75,0.5,3,0.045825896,0.2819,36,0,36,0,1,,,,,,,,,,
,,850303,001,2023-07-31_20h43.05.105,arm3_eps,2022.2.5,Win32,59.96282305,5f632ea32e85353d93872c67,64c7fed44a04f777bb1e18ce,64c80096a2334d1ce1c7ef74,right,1,0.75,0.5,3,0.083761688,0.1824,37,0,37,0,1,,,,,,,,,,
,,850303,001,2023-07-31_20h43.05.105,arm3_eps,2022.2.5,Win32,59.96282305,5f632ea32e85353d93872c67,64c7fed44a04f777bb1e18ce,64c80096a2334d1ce1c7ef74,right,1,0.75,0.5,3,0.07633274,0.1734,38,0,38,0,1,,,,,,,,,,
,,850303,001,2023-07-31_20h43.05.105,arm3_eps,2022.2.5,Win32,59.96282305,5f632ea32e85353d93872c67,64c7fed44a04f777bb1e18ce,64c80096a2334d1ce1c7ef74,up,1,0.75,0.5,4,0,0.4703,39,0,39,0,1,,,,,,,,,,
,,850303,001,2023-07-31_20h43.05.105,arm3_eps,2022.2.5,Win32,59.96282305,5f632ea32e85353d93872c67,64c7fed44a04f777bb1e18ce,64c80096a2334d1ce1c7ef74,right,1,0.75,0.5,4,0.004284096,3.9455,40,0,40,0,1,,,,,,,,,,
,,850303,001,2023-07-31_20h43.05.105,arm3_eps,2022.2.5,Win32,59.96282305,5f632ea32e85353d93872c67,64c7fed44a04f777bb1e18ce,64c80096a2334d1ce1c7ef74,right,1,0.75,0.5,4,0.002817357,0.2134,41,0,41,0,1,,,,,,,,,,
,,850303,001,2023-07-31_20h43.05.105,arm3_eps,2022.2.5,Win32,59.96282305,5f632ea32e85353d93872c67,64c7fed44a04f777bb1e18ce,64c80096a2334d1ce1c7ef74,right,1,0.75,0.5,4,0.024762388,0.2991,42,0,42,0,1,,,,,,,,,,
,,850303,001,2023-07-31_20h43.05.105,arm3_eps,2022.2.5,Win32,59.96282305,5f632ea32e85353d93872c67,64c7fed44a04f777bb1e18ce,64c80096a2334d1ce1c7ef74,right,1,0.75,0.5,4,0.027610255,0.8228,43,0,43,0,1,,,,,,,,,,
,,850303,001,2023-07-31_20h43.05.105,arm3_eps,2022.2.5,Win32,59.96282305,5f632ea32e85353d93872c67,64c7fed44a04f777bb1e18ce,64c80096a2334d1ce1c7ef74,up,-1,0.75,0.5,4,0,0.6209,44,0,44,0,1,,,,,,,,,,
,,850303,001,2023-07-31_20h43.05.105,arm3_eps,2022.2.5,Win32,59.96282305,5f632ea32e85353d93872c67,64c7fed44a04f777bb1e18ce,64c80096a2334d1ce1c7ef74,right,-1,0.75,0.5,4,-0.00927022,1.2416,45,0,45,0,1,,,,,,,,,,
,,850303,001,2023-07-31_20h43.05.105,arm3_eps,2022.2.5,Win32,59.96282305,5f632ea32e85353d93872c67,64c7fed44a04f777bb1e18ce,64c80096a2334d1ce1c7ef74,right,-1,0.75,0.5,4,0.015073073,0.5525,46,0,46,0,1,,,,,,,,,,
,,850303,001,2023-07-31_20h43.05.105,arm3_eps,2022.2.5,Win32,59.96282305,5f632ea32e85353d93872c67,64c7fed44a04f777bb1e18ce,64c80096a2334d1ce1c7ef74,right,-1,0.75,0.5,4,-0.005540951,0.4831,47,0,47,0,1,,,,,,,,,,
,,850303,001,2023-07-31_20h43.05.105,arm3_eps,2022.2.5,Win32,59.96282305,5f632ea32e85353d93872c67,64c7fed44a04f777bb1e18ce,64c80096a2334d1ce1c7ef74,right,-1,0.75,0.5,4,-0.043491525,0.5995,48,0,48,0,1,,,,,,,,,,
,,850303,001,2023-07-31_20h43.05.105,arm3_eps,2022.2.5,Win32,59.96282305,5f632ea32e85353d93872c67,64c7fed44a04f777bb1e18ce,64c80096a2334d1ce1c7ef74,down,-1,0.75,0.5,4,-0.043491525,0.5028,49,0,49,0,1,,,,,,,,,,
space,1.2792,850303,001,2023-07-31_20h43.05.105,arm3_eps,2022.2.5,Win32,59.96282305,5f632ea32e85353d93872c67,64c7fed44a04f777bb1e18ce,64c80096a2334d1ce1c7ef74,,,,,,,,,,,,,,,,,,,,,,
space,4.62,850303,001,2023-07-31_20h43.05.105,arm3_eps,2022.2.5,Win32,59.96282305,5f632ea32e85353d93872c67,64c7fed44a04f777bb1e18ce,64c80096a2334d1ce1c7ef74,right,-1,0.75,0.5,0,-0.029538783,1.9422,,,,,,0,0,0,0,1,,,,,
,,850303,001,2023-07-31_20h43.05.105,arm3_eps,2022.2.5,Win32,59.96282305,5f632ea32e85353d93872c67,64c7fed44a04f777bb1e18ce,64c80096a2334d1ce1c7ef74,right,-1,0.75,0.5,0,-0.026300361,0.381,,,,,,1,0,1,0,1,,,,,
,,850303,001,2023-07-31_20h43.05.105,arm3_eps,2022.2.5,Win32,59.96282305,5f632ea32e85353d93872c67,64c7fed44a04f777bb1e18ce,64c80096a2334d1ce1c7ef74,right,-1,0.75,0.5,0,-0.019144347,0.3647,,,,,,2,0,2,0,1,,,,,
,,850303,001,2023-07-31_20h43.05.105,arm3_eps,2022.2.5,Win32,59.96282305,5f632ea32e85353d93872c67,64c7fed44a04f777bb1e18ce,64c80096a2334d1ce1c7ef74,down,1,0.75,0.5,0,0,0.7179,,,,,,3,0,3,0,1,,,,,
,,850303,001,2023-07-31_20h43.05.105,arm3_eps,2022.2.5,Win32,59.96282305,5f632ea32e85353d93872c67,64c7fed44a04f777bb1e18ce,64c80096a2334d1ce1c7ef74,right,1,0.75,0.5,0,-0.005400059,0.9806,,,,,,4,0,4,0,1,,,,,
,,850303,001,2023-07-31_20h43.05.105,arm3_eps,2022.2.5,Win32,59.96282305,5f632ea32e85353d93872c67,64c7fed44a04f777bb1e18ce,64c80096a2334d1ce1c7ef74,right,1,0.75,0.5,0,0.02448631,0.3288,,,,,,5,0,5,0,1,,,,,
,,850303,001,2023-07-31_20h43.05.105,arm3_eps,2022.2.5,Win32,59.96282305,5f632ea32e85353d93872c67,64c7fed44a04f777bb1e18ce,64c80096a2334d1ce1c7ef74,right,1,0.75,0.5,0,0.049961856,0.3952,,,,,,6,0,6,0,1,,,,,
,,850303,001,2023-07-31_20h43.05.105,arm3_eps,2022.2.5,Win32,59.96282305,5f632ea32e85353d93872c67,64c7fed44a04f777bb1e18ce,64c80096a2334d1ce1c7ef74,up,-1,0.75,0.5,1,0,0.4036,,,,,,7,0,7,0,1,,,,,
,,850303,001,2023-07-31_20h43.05.105,arm3_eps,2022.2.5,Win32,59.96282305,5f632ea32e85353d93872c67,64c7fed44a04f777bb1e18ce,64c80096a2334d1ce1c7ef74,right,-1,0.75,0.5,1,-0.03302382,0.9908,,,,,,8,0,8,0,1,,,,,
,,850303,001,2023-07-31_20h43.05.105,arm3_eps,2022.2.5,Win32,59.96282305,5f632ea32e85353d93872c67,64c7fed44a04f777bb1e18ce,64c80096a2334d1ce1c7ef74,right,-1,0.75,0.5,1,-0.04828992,0.4029,,,,,,9,0,9,0,1,,,,,
,,850303,001,2023-07-31_20h43.05.105,arm3_eps,2022.2.5,Win32,59.96282305,5f632ea32e85353d93872c67,64c7fed44a04f777bb1e18ce,64c80096a2334d1ce1c7ef74,down,1,0.75,0.5,1,0,0.3768,,,,,,10,0,10,0,1,,,,,
,,850303,001,2023-07-31_20h43.05.105,arm3_eps,2022.2.5,Win32,59.96282305,5f632ea32e85353d93872c67,64c7fed44a04f777bb1e18ce,64c80096a2334d1ce1c7ef74,right,1,0.75,0.5,1,0.046047544,0.9995,,,,,,11,0,11,0,1,,,,,
,,850303,001,2023-07-31_20h43.05.105,arm3_eps,2022.2.5,Win32,59.96282305,5f632ea32e85353d93872c67,64c7fed44a04f777bb1e18ce,64c80096a2334d1ce1c7ef74,right,1,0.75,0.5,1,0.047237888,0.777,,,,,,12,0,12,0,1,,,,,
,,850303,001,2023-07-31_20h43.05.105,arm3_eps,2022.2.5,Win32,59.96282305,5f632ea32e85353d93872c67,64c7fed44a04f777bb1e18ce,64c80096a2334d1ce1c7ef74,right,1,0.75,0.5,1,0.041255836,0.4586,,,,,,13,0,13,0,1,,,,,
,,850303,001,2023-07-31_20h43.05.105,arm3_eps,2022.2.5,Win32,59.96282305,5f632ea32e85353d93872c67,64c7fed44a04f777bb1e18ce,64c80096a2334d1ce1c7ef74,up,-1,0.75,0.5,1,0,0.5512,,,,,,14,0,14,0,1,,,,,
,,850303,001,2023-07-31_20h43.05.105,arm3_eps,2022.2.5,Win32,59.96282305,5f632ea32e85353d93872c67,64c7fed44a04f777bb1e18ce,64c80096a2334d1ce1c7ef74,right,-1,0.75,0.5,1,0.018210457,0.9498,,,,,,15,0,15,0,1,,,,,
,,850303,001,2023-07-31_20h43.05.105,arm3_eps,2022.2.5,Win32,59.96282305,5f632ea32e85353d93872c67,64c7fed44a04f777bb1e18ce,64c80096a2334d1ce1c7ef74,right,-1,0.75,0.5,1,-0.038083178,0.3366,,,,,,16,0,16,0,1,,,,,
,,850303,001,2023-07-31_20h43.05.105,arm3_eps,2022.2.5,Win32,59.96282305,5f632ea32e85353d93872c67,64c7fed44a04f777bb1e18ce,64c80096a2334d1ce1c7ef74,down,-1,0.75,0.5,2,0,0.5635,,,,,,17,0,17,0,1,,,,,
,,850303,001,2023-07-31_20h43.05.105,arm3_eps,2022.2.5,Win32,59.96282305,5f632ea32e85353d93872c67,64c7fed44a04f777bb1e18ce,64c80096a2334d1ce1c7ef74,right,-1,0.75,0.5,2,-0.014792218,1.0507,,,,,,18,0,18,0,1,,,,,
,,850303,001,2023-07-31_20h43.05.105,arm3_eps,2022.2.5,Win32,59.96282305,5f632ea32e85353d93872c67,64c7fed44a04f777bb1e18ce,64c80096a2334d1ce1c7ef74,right,-1,0.75,0.5,2,-0.036855514,0.4174,,,,,,19,0,19,0,1,,,,,
,,850303,001,2023-07-31_20h43.05.105,arm3_eps,2022.2.5,Win32,59.96282305,5f632ea32e85353d93872c67,64c7fed44a04f777bb1e18ce,64c80096a2334d1ce1c7ef74,down,-1,0.75,0.5,3,0,0.4482,,,,,,20,0,20,0,1,,,,,
,,850303,001,2023-07-31_20h43.05.105,arm3_eps,2022.2.5,Win32,59.96282305,5f632ea32e85353d93872c67,64c7fed44a04f777bb1e18ce,64c80096a2334d1ce1c7ef74,right,-1,0.75,0.5,3,-0.01973121,0.8283,,,,,,21,0,21,0,1,,,,,
,,850303,001,2023-07-31_20h43.05.105,arm3_eps,2022.2.5,Win32,59.96282305,5f632ea32e85353d93872c67,64c7fed44a04f777bb1e18ce,64c80096a2334d1ce1c7ef74,right,-1,0.75,0.5,3,-0.025799835,0.3957,,,,,,22,0,22,0,1,,,,,
,,850303,001,2023-07-31_20h43.05.105,arm3_eps,2022.2.5,Win32,59.96282305,5f632ea32e85353d93872c67,64c7fed44a04f777bb1e18ce,64c80096a2334d1ce1c7ef74,down,1,0.75,0.5,3,0,0.5313,,,,,,23,0,23,0,1,,,,,
,,850303,001,2023-07-31_20h43.05.105,arm3_eps,2022.2.5,Win32,59.96282305,5f632ea32e85353d93872c67,64c7fed44a04f777bb1e18ce,64c80096a2334d1ce1c7ef74,right,1,0.75,0.5,3,0.024760613,0.8451,,,,,,24,0,24,0,1,,,,,
,,850303,001,2023-07-31_20h43.05.105,arm3_eps,2022.2.5,Win32,59.96282305,5f632ea32e85353d93872c67,64c7fed44a04f777bb1e18ce,64c80096a2334d1ce1c7ef74,right,1,0.75,0.5,3,0.055302246,0.3646,,,,,,25,0,25,0,1,,,,,
,,850303,001,2023-07-31_20h43.05.105,arm3_eps,2022.2.5,Win32,59.96282305,5f632ea32e85353d93872c67,64c7fed44a04f777bb1e18ce,64c80096a2334d1ce1c7ef74,up,1,0.75,0.5,4,0,0.3004,,,,,,26,0,26,0,1,,,,,
,,850303,001,2023-07-31_20h43.05.105,arm3_eps,2022.2.5,Win32,59.96282305,5f632ea32e85353d93872c67,64c7fed44a04f777bb1e18ce,64c80096a2334d1ce1c7ef74,right,1,0.75,0.5,4,0.043523926,1.0275,,,,,,27,0,27,0,1,,,,,
,,850303,001,2023-07-31_20h43.05.105,arm3_eps,2022.2.5,Win32,59.96282305,5f632ea32e85353d93872c67,64c7fed44a04f777bb1e18ce,64c80096a2334d1ce1c7ef74,up,1,0.75,0.5,5,0,0.5809,,,,,,28,0,28,0,1,,,,,
,,850303,001,2023-07-31_20h43.05.105,arm3_eps,2022.2.5,Win32,59.96282305,5f632ea32e85353d93872c67,64c7fed44a04f777bb1e18ce,64c80096a2334d1ce1c7ef74,right,1,0.75,0.5,5,0.030987136,1.0665,,,,,,29,0,29,0,1,,,,,
,,850303,001,2023-07-31_20h43.05.105,arm3_eps,2022.2.5,Win32,59.96282305,5f632ea32e85353d93872c67,64c7fed44a04f777bb1e18ce,64c80096a2334d1ce1c7ef74,right,1,0.75,0.5,5,0.059095913,0.3864,,,,,,30,0,30,0,1,,,,,
,,850303,001,2023-07-31_20h43.05.105,arm3_eps,2022.2.5,Win32,59.96282305,5f632ea32e85353d93872c67,64c7fed44a04f777bb1e18ce,64c80096a2334d1ce1c7ef74,up,-1,0.75,0.5,6,0,0.5315,,,,,,31,0,31,0,1,,,,,
,,850303,001,2023-07-31_20h43.05.105,arm3_eps,2022.2.5,Win32,59.96282305,5f632ea32e85353d93872c67,64c7fed44a04f777bb1e18ce,64c80096a2334d1ce1c7ef74,right,-1,0.75,0.5,6,-0.000367525,1.0177,,,,,,32,0,32,0,1,,,,,
,,850303,001,2023-07-31_20h43.05.105,arm3_eps,2022.2.5,Win32,59.96282305,5f632ea32e85353d93872c67,64c7fed44a04f777bb1e18ce,64c80096a2334d1ce1c7ef74,right,-1,0.75,0.5,6,-0.023968836,0.2509,,,,,,33,0,33,0,1,,,,,
,,850303,001,2023-07-31_20h43.05.105,arm3_eps,2022.2.5,Win32,59.96282305,5f632ea32e85353d93872c67,64c7fed44a04f777bb1e18ce,64c80096a2334d1ce1c7ef74,right,-1,0.75,0.5,6,-0.022917981,0.3118,,,,,,34,0,34,0,1,,,,,
,,850303,001,2023-07-31_20h43.05.105,arm3_eps,2022.2.5,Win32,59.96282305,5f632ea32e85353d93872c67,64c7fed44a04f777bb1e18ce,64c80096a2334d1ce1c7ef74,right,-1,0.75,0.5,6,0.011468005,0.4436,,,,,,35,0,35,0,1,,,,,
,,850303,001,2023-07-31_20h43.05.105,arm3_eps,2022.2.5,Win32,59.96282305,5f632ea32e85353d93872c67,64c7fed44a04f777bb1e18ce,64c80096a2334d1ce1c7ef74,right,-1,0.75,0.5,6,-0.032037232,0.4641,,,,,,36,0,36,0,1,,,,,
,,850303,001,2023-07-31_20h43.05.105,arm3_eps,2022.2.5,Win32,59.96282305,5f632ea32e85353d93872c67,64c7fed44a04f777bb1e18ce,64c80096a2334d1ce1c7ef74,right,-1,0.75,0.5,6,-0.011984818,0.4148,,,,,,37,0,37,0,1,,,,,
,,850303,001,2023-07-31_20h43.05.105,arm3_eps,2022.2.5,Win32,59.96282305,5f632ea32e85353d93872c67,64c7fed44a04f777bb1e18ce,64c80096a2334d1ce1c7ef74,down,1,0.75,0.5,6,0,0.9325,,,,,,38,0,38,0,1,,,,,
,,850303,001,2023-07-31_20h43.05.105,arm3_eps,2022.2.5,Win32,59.96282305,5f632ea32e85353d93872c67,64c7fed44a04f777bb1e18ce,64c80096a2334d1ce1c7ef74,right,1,0.75,0.5,6,0.00791242,0.8674,,,,,,39,0,39,0,1,,,,,
,,850303,001,2023-07-31_20h43.05.105,arm3_eps,2022.2.5,Win32,59.96282305,5f632ea32e85353d93872c67,64c7fed44a04f777bb1e18ce,64c80096a2334d1ce1c7ef74,right,1,0.75,0.5,6,0.052421099,0.4906,,,,,,40,0,40,0,1,,,,,
,,850303,001,2023-07-31_20h43.05.105,arm3_eps,2022.2.5,Win32,59.96282305,5f632ea32e85353d93872c67,64c7fed44a04f777bb1e18ce,64c80096a2334d1ce1c7ef74,up,1,0.75,0.5,7,0,0.4804,,,,,,41,0,41,0,1,,,,,
,,850303,001,2023-07-31_20h43.05.105,arm3_eps,2022.2.5,Win32,59.96282305,5f632ea32e85353d93872c67,64c7fed44a04f777bb1e18ce,64c80096a2334d1ce1c7ef74,right,1,0.75,0.5,7,0.025689332,0.8964,,,,,,42,0,42,0,1,,,,,
,,850303,001,2023-07-31_20h43.05.105,arm3_eps,2022.2.5,Win32,59.96282305,5f632ea32e85353d93872c67,64c7fed44a04f777bb1e18ce,64c80096a2334d1ce1c7ef74,right,1,0.75,0.5,7,-0.005273447,0.2217,,,,,,43,0,43,0,1,,,,,
,,850303,001,2023-07-31_20h43.05.105,arm3_eps,2022.2.5,Win32,59.96282305,5f632ea32e85353d93872c67,64c7fed44a04f777bb1e18ce,64c80096a2334d1ce1c7ef74,right,1,0.75,0.5,7,0.010591807,0.3407,,,,,,44,0,44,0,1,,,,,
,,850303,001,2023-07-31_20h43.05.105,arm3_eps,2022.2.5,Win32,59.96282305,5f632ea32e85353d93872c67,64c7fed44a04f777bb1e18ce,64c80096a2334d1ce1c7ef74,right,1,0.75,0.5,7,0.030815177,0.4066,,,,,,45,0,45,0,1,,,,,
,,850303,001,2023-07-31_20h43.05.105,arm3_eps,2022.2.5,Win32,59.96282305,5f632ea32e85353d93872c67,64c7fed44a04f777bb1e18ce,64c80096a2334d1ce1c7ef74,right,1,0.75,0.5,7,0.017984364,0.4874,,,,,,46,0,46,0,1,,,,,
,,850303,001,2023-07-31_20h43.05.105,arm3_eps,2022.2.5,Win32,59.96282305,5f632ea32e85353d93872c67,64c7fed44a04f777bb1e18ce,64c80096a2334d1ce1c7ef74,right,1,0.75,0.5,7,0.019828339,0.8908,,,,,,47,0,47,0,1,,,,,
,,850303,001,2023-07-31_20h43.05.105,arm3_eps,2022.2.5,Win32,59.96282305,5f632ea32e85353d93872c67,64c7fed44a04f777bb1e18ce,64c80096a2334d1ce1c7ef74,right,1,0.75,0.5,7,0.010352262,0.1979,,,,,,48,0,48,0,1,,,,,
,,850303,001,2023-07-31_20h43.05.105,arm3_eps,2022.2.5,Win32,59.96282305,5f632ea32e85353d93872c67,64c7fed44a04f777bb1e18ce,64c80096a2334d1ce1c7ef74,right,1,0.75,0.5,7,0.020644834,0.3803,,,,,,49,0,49,0,1,,,,,
,,850303,001,2023-07-31_20h43.05.105,arm3_eps,2022.2.5,Win32,59.96282305,5f632ea32e85353d93872c67,64c7fed44a04f777bb1e18ce,64c80096a2334d1ce1c7ef74,up,-1,0.75,0.5,7,0,0.6538,,,,,,50,0,50,0,1,,,,,
,,850303,001,2023-07-31_20h43.05.105,arm3_eps,2022.2.5,Win32,59.96282305,5f632ea32e85353d93872c67,64c7fed44a04f777bb1e18ce,64c80096a2334d1ce1c7ef74,right,-1,0.75,0.5,7,-0.014766924,0.9037,,,,,,51,0,51,0,1,,,,,
,,850303,001,2023-07-31_20h43.05.105,arm3_eps,2022.2.5,Win32,59.96282305,5f632ea32e85353d93872c67,64c7fed44a04f777bb1e18ce,64c80096a2334d1ce1c7ef74,right,-1,0.75,0.5,7,-0.004942028,0.3746,,,,,,52,0,52,0,1,,,,,
,,850303,001,2023-07-31_20h43.05.105,arm3_eps,2022.2.5,Win32,59.96282305,5f632ea32e85353d93872c67,64c7fed44a04f777bb1e18ce,64c80096a2334d1ce1c7ef74,right,-1,0.75,0.5,7,-0.023479365,0.3112,,,,,,53,0,53,0,1,,,,,
,,850303,001,2023-07-31_20h43.05.105,arm3_eps,2022.2.5,Win32,59.96282305,5f632ea32e85353d93872c67,64c7fed44a04f777bb1e18ce,64c80096a2334d1ce1c7ef74,down,-1,0.75,0.5,8,0,0.5376,,,,,,54,0,54,0,1,,,,,
,,850303,001,2023-07-31_20h43.05.105,arm3_eps,2022.2.5,Win32,59.96282305,5f632ea32e85353d93872c67,64c7fed44a04f777bb1e18ce,64c80096a2334d1ce1c7ef74,right,-1,0.75,0.5,8,-0.008577792,1.0571,,,,,,55,0,55,0,1,,,,,
,,850303,001,2023-07-31_20h43.05.105,arm3_eps,2022.2.5,Win32,59.96282305,5f632ea32e85353d93872c67,64c7fed44a04f777bb1e18ce,64c80096a2334d1ce1c7ef74,right,-1,0.75,0.5,8,-0.033040179,0.37,,,,,,56,0,56,0,1,,,,,
,,850303,001,2023-07-31_20h43.05.105,arm3_eps,2022.2.5,Win32,59.96282305,5f632ea32e85353d93872c67,64c7fed44a04f777bb1e18ce,64c80096a2334d1ce1c7ef74,down,1,0.75,0.5,9,0,0.5143,,,,,,57,0,57,0,1,,,,,
,,850303,001,2023-07-31_20h43.05.105,arm3_eps,2022.2.5,Win32,59.96282305,5f632ea32e85353d93872c67,64c7fed44a04f777bb1e18ce,64c80096a2334d1ce1c7ef74,right,1,0.75,0.5,9,-0.004184485,1.2821,,,,,,58,0,58,0,1,,,,,
,,850303,001,2023-07-31_20h43.05.105,arm3_eps,2022.2.5,Win32,59.96282305,5f632ea32e85353d93872c67,64c7fed44a04f777bb1e18ce,64c80096a2334d1ce1c7ef74,right,1,0.75,0.5,9,0.02634887,1.1145,,,,,,59,0,59,0,1,,,,,
,,850303,001,2023-07-31_20h43.05.105,arm3_eps,2022.2.5,Win32,59.96282305,5f632ea32e85353d93872c67,64c7fed44a04f777bb1e18ce,64c80096a2334d1ce1c7ef74,right,1,0.75,0.5,9,0.011052108,0.451,,,,,,60,0,60,0,1,,,,,
,,850303,001,2023-07-31_20h43.05.105,arm3_eps,2022.2.5,Win32,59.96282305,5f632ea32e85353d93872c67,64c7fed44a04f777bb1e18ce,64c80096a2334d1ce1c7ef74,up,1,0.75,0.5,10,0,0.9287,,,,,,61,0,61,0,1,,,,,
,,850303,001,2023-07-31_20h43.05.105,arm3_eps,2022.2.5,Win32,59.96282305,5f632ea32e85353d93872c67,64c7fed44a04f777bb1e18ce,64c80096a2334d1ce1c7ef74,right,1,0.75,0.5,10,-0.012338445,1.0571,,,,,,62,0,62,0,1,,,,,
,,850303,001,2023-07-31_20h43.05.105,arm3_eps,2022.2.5,Win32,59.96282305,5f632ea32e85353d93872c67,64c7fed44a04f777bb1e18ce,64c80096a2334d1ce1c7ef74,right,1,0.75,0.5,10,-0.012828715,0.3128,,,,,,63,0,63,0,1,,,,,
,,850303,001,2023-07-31_20h43.05.105,arm3_eps,2022.2.5,Win32,59.96282305,5f632ea32e85353d93872c67,64c7fed44a04f777bb1e18ce,64c80096a2334d1ce1c7ef74,down,-1,0.75,0.5,9,0,1.0029,,,,,,64,0,64,0,1,,,,,
,,850303,001,2023-07-31_20h43.05.105,arm3_eps,2022.2.5,Win32,59.96282305,5f632ea32e85353d93872c67,64c7fed44a04f777bb1e18ce,64c80096a2334d1ce1c7ef74,right,-1,0.75,0.5,9,0.025778431,1.2,,,,,,65,0,65,0,1,,,,,
,,850303,001,2023-07-31_20h43.05.105,arm3_eps,2022.2.5,Win32,59.96282305,5f632ea32e85353d93872c67,64c7fed44a04f777bb1e18ce,64c80096a2334d1ce1c7ef74,right,-1,0.75,0.5,9,0.014493436,0.4656,,,,,,66,0,66,0,1,,,,,
,,850303,001,2023-07-31_20h43.05.105,arm3_eps,2022.2.5,Win32,59.96282305,5f632ea32e85353d93872c67,64c7fed44a04f777bb1e18ce,64c80096a2334d1ce1c7ef74,right,-1,0.75,0.5,9,0.002009148,0.3033,,,,,,67,0,67,0,1,,,,,
,,850303,001,2023-07-31_20h43.05.105,arm3_eps,2022.2.5,Win32,59.96282305,5f632ea32e85353d93872c67,64c7fed44a04f777bb1e18ce,64c80096a2334d1ce1c7ef74,right,-1,0.75,0.5,9,-0.00605339,0.3221,,,,,,68,0,68,0,1,,,,,
,,850303,001,2023-07-31_20h43.05.105,arm3_eps,2022.2.5,Win32,59.96282305,5f632ea32e85353d93872c67,64c7fed44a04f777bb1e18ce,64c80096a2334d1ce1c7ef74,right,-1,0.75,0.5,9,-0.020217219,0.2307,,,,,,69,0,69,0,1,,,,,
,,850303,001,2023-07-31_20h43.05.105,arm3_eps,2022.2.5,Win32,59.96282305,5f632ea32e85353d93872c67,64c7fed44a04f777bb1e18ce,64c80096a2334d1ce1c7ef74,right,-1,0.75,0.5,9,-0.026455859,0.381,,,,,,70,0,70,0,1,,,,,
,,850303,001,2023-07-31_20h43.05.105,arm3_eps,2022.2.5,Win32,59.96282305,5f632ea32e85353d93872c67,64c7fed44a04f777bb1e18ce,64c80096a2334d1ce1c7ef74,right,-1,0.75,0.5,9,-0.047359621,0.3237,,,,,,71,0,71,0,1,,,,,
,,850303,001,2023-07-31_20h43.05.105,arm3_eps,2022.2.5,Win32,59.96282305,5f632ea32e85353d93872c67,64c7fed44a04f777bb1e18ce,64c80096a2334d1ce1c7ef74,down,-1,0.75,0.5,10,0,0.6788,,,,,,72,0,72,0,1,,,,,
,,850303,001,2023-07-31_20h43.05.105,arm3_eps,2022.2.5,Win32,59.96282305,5f632ea32e85353d93872c67,64c7fed44a04f777bb1e18ce,64c80096a2334d1ce1c7ef74,right,-1,0.75,0.5,10,-0.030122456,1.2798,,,,,,73,0,73,0,1,,,,,
,,850303,001,2023-07-31_20h43.05.105,arm3_eps,2022.2.5,Win32,59.96282305,5f632ea32e85353d93872c67,64c7fed44a04f777bb1e18ce,64c80096a2334d1ce1c7ef74,right,-1,0.75,0.5,10,-0.056190103,0.4474,,,,,,74,0,74,0,1,,,,,
,,850303,001,2023-07-31_20h43.05.105,arm3_eps,2022.2.5,Win32,59.96282305,5f632ea32e85353d93872c67,64c7fed44a04f777bb1e18ce,64c80096a2334d1ce1c7ef74,down,-1,0.75,0.5,10,0,0.499,,,,,,75,0,75,0,1,,,,,
,,850303,001,2023-07-31_20h43.05.105,arm3_eps,2022.2.5,Win32,59.96282305,5f632ea32e85353d93872c67,64c7fed44a04f777bb1e18ce,64c80096a2334d1ce1c7ef74,right,-1,0.75,0.5,10,-0.014675479,1.0692,,,,,,76,0,76,0,1,,,,,
,,850303,001,2023-07-31_20h43.05.105,arm3_eps,2022.2.5,Win32,59.96282305,5f632ea32e85353d93872c67,64c7fed44a04f777bb1e18ce,64c80096a2334d1ce1c7ef74,right,-1,0.75,0.5,10,-0.017392283,0.3479,,,,,,77,0,77,0,1,,,,,
,,850303,001,2023-07-31_20h43.05.105,arm3_eps,2022.2.5,Win32,59.96282305,5f632ea32e85353d93872c67,64c7fed44a04f777bb1e18ce,64c80096a2334d1ce1c7ef74,down,1,0.75,0.5,11,0,0.5807,,,,,,78,0,78,0,1,,,,,
,,850303,001,2023-07-31_20h43.05.105,arm3_eps,2022.2.5,Win32,59.96282305,5f632ea32e85353d93872c67,64c7fed44a04f777bb1e18ce,64c80096a2334d1ce1c7ef74,right,1,0.75,0.5,11,0.033852958,1.3714,,,,,,79,0,79,0,1,,,,,
,,850303,001,2023-07-31_20h43.05.105,arm3_eps,2022.2.5,Win32,59.96282305,5f632ea32e85353d93872c67,64c7fed44a04f777bb1e18ce,64c80096a2334d1ce1c7ef74,up,1,0.75,0.5,12,0,0.5176,,,,,,80,0,80,0,1,,,,,
,,850303,001,2023-07-31_20h43.05.105,arm3_eps,2022.2.5,Win32,59.96282305,5f632ea32e85353d93872c67,64c7fed44a04f777bb1e18ce,64c80096a2334d1ce1c7ef74,right,1,0.75,0.5,12,0.013111149,1.1582,,,,,,81,0,81,0,1,,,,,
,,850303,001,2023-07-31_20h43.05.105,arm3_eps,2022.2.5,Win32,59.96282305,5f632ea32e85353d93872c67,64c7fed44a04f777bb1e18ce,64c80096a2334d1ce1c7ef74,right,1,0.75,0.5,12,0.022286697,0.362,,,,,,82,0,82,0,1,,,,,
,,850303,001,2023-07-31_20h43.05.105,arm3_eps,2022.2.5,Win32,59.96282305,5f632ea32e85353d93872c67,64c7fed44a04f777bb1e18ce,64c80096a2334d1ce1c7ef74,right,1,0.75,0.5,12,0.031835573,0.4431,,,,,,83,0,83,0,1,,,,,
,,850303,001,2023-07-31_20h43.05.105,arm3_eps,2022.2.5,Win32,59.96282305,5f632ea32e85353d93872c67,64c7fed44a04f777bb1e18ce,64c80096a2334d1ce1c7ef74,up,1,0.75,0.5,12,0,0.481,,,,,,84,0,84,0,1,,,,,
,,850303,001,2023-07-31_20h43.05.105,arm3_eps,2022.2.5,Win32,59.96282305,5f632ea32e85353d93872c67,64c7fed44a04f777bb1e18ce,64c80096a2334d1ce1c7ef74,right,1,0.75,0.5,12,0.034556843,1.2026,,,,,,85,0,85,0,1,,,,,
,,850303,001,2023-07-31_20h43.05.105,arm3_eps,2022.2.5,Win32,59.96282305,5f632ea32e85353d93872c67,64c7fed44a04f777bb1e18ce,64c80096a2334d1ce1c7ef74,right,1,0.75,0.5,12,0.05241865,0.3885,,,,,,86,0,86,0,1,,,,,
,,850303,001,2023-07-31_20h43.05.105,arm3_eps,2022.2.5,Win32,59.96282305,5f632ea32e85353d93872c67,64c7fed44a04f777bb1e18ce,64c80096a2334d1ce1c7ef74,up,1,0.75,0.5,13,0,0.4847,,,,,,87,0,87,0,1,,,,,
,,850303,001,2023-07-31_20h43.05.105,arm3_eps,2022.2.5,Win32,59.96282305,5f632ea32e85353d93872c67,64c7fed44a04f777bb1e18ce,64c80096a2334d1ce1c7ef74,right,1,0.75,0.5,13,0.023517328,1.3263,,,,,,88,0,88,0,1,,,,,
,,850303,001,2023-07-31_20h43.05.105,arm3_eps,2022.2.5,Win32,59.96282305,5f632ea32e85353d93872c67,64c7fed44a04f777bb1e18ce,64c80096a2334d1ce1c7ef74,right,1,0.75,0.5,13,0.03395763,0.243,,,,,,89,0,89,0,1,,,,,
,,850303,001,2023-07-31_20h43.05.105,arm3_eps,2022.2.5,Win32,59.96282305,5f632ea32e85353d93872c67,64c7fed44a04f777bb1e18ce,64c80096a2334d1ce1c7ef74,right,1,0.75,0.5,13,0.034152244,0.5293,,,,,,90,0,90,0,1,,,,,
,,850303,001,2023-07-31_20h43.05.105,arm3_eps,2022.2.5,Win32,59.96282305,5f632ea32e85353d93872c67,64c7fed44a04f777bb1e18ce,64c80096a2334d1ce1c7ef74,up,-1,0.75,0.5,14,0,0.4839,,,,,,91,0,91,0,1,,,,,
,,850303,001,2023-07-31_20h43.05.105,arm3_eps,2022.2.5,Win32,59.96282305,5f632ea32e85353d93872c67,64c7fed44a04f777bb1e18ce,64c80096a2334d1ce1c7ef74,right,-1,0.75,0.5,14,0.010025075,0.8683,,,,,,92,0,92,0,1,,,,,
,,850303,001,2023-07-31_20h43.05.105,arm3_eps,2022.2.5,Win32,59.96282305,5f632ea32e85353d93872c67,64c7fed44a04f777bb1e18ce,64c80096a2334d1ce1c7ef74,right,-1,0.75,0.5,14,-0.007675956,0.4768,,,,,,93,0,93,0,1,,,,,
,,850303,001,2023-07-31_20h43.05.105,arm3_eps,2022.2.5,Win32,59.96282305,5f632ea32e85353d93872c67,64c7fed44a04f777bb1e18ce,64c80096a2334d1ce1c7ef74,right,-1,0.75,0.5,14,-0.027296203,0.4252,,,,,,94,0,94,0,1,,,,,
,,850303,001,2023-07-31_20h43.05.105,arm3_eps,2022.2.5,Win32,59.96282305,5f632ea32e85353d93872c67,64c7fed44a04f777bb1e18ce,64c80096a2334d1ce1c7ef74,down,-1,0.75,0.5,15,0,0.4883,,,,,,95,0,95,0,1,,,,,
,,850303,001,2023-07-31_20h43.05.105,arm3_eps,2022.2.5,Win32,59.96282305,5f632ea32e85353d93872c67,64c7fed44a04f777bb1e18ce,64c80096a2334d1ce1c7ef74,right,-1,0.75,0.5,15,0.003447372,1.1112,,,,,,96,0,96,0,1,,,,,
,,850303,001,2023-07-31_20h43.05.105,arm3_eps,2022.2.5,Win32,59.96282305,5f632ea32e85353d93872c67,64c7fed44a04f777bb1e18ce,64c80096a2334d1ce1c7ef74,right,-1,0.75,0.5,15,0.005338918,0.3417,,,,,,97,0,97,0,1,,,,,
,,850303,001,2023-07-31_20h43.05.105,arm3_eps,2022.2.5,Win32,59.96282305,5f632ea32e85353d93872c67,64c7fed44a04f777bb1e18ce,64c80096a2334d1ce1c7ef74,right,-1,0.75,0.5,15,-0.018109741,0.4882,,,,,,98,0,98,0,1,,,,,
,,850303,001,2023-07-31_20h43.05.105,arm3_eps,2022.2.5,Win32,59.96282305,5f632ea32e85353d93872c67,64c7fed44a04f777bb1e18ce,64c80096a2334d1ce1c7ef74,right,-1,0.75,0.5,15,-0.021683043,0.4362,,,,,,99,0,99,0,1,,,,,
,,850303,001,2023-07-31_20h43.05.105,arm3_eps,2022.2.5,Win32,59.96282305,5f632ea32e85353d93872c67,64c7fed44a04f777bb1e18ce,64c80096a2334d1ce1c7ef74,down,-1,0.75,0.5,16,0,0.5465,,,,,,100,0,100,0,1,,,,,
,,850303,001,2023-07-31_20h43.05.105,arm3_eps,2022.2.5,Win32,59.96282305,5f632ea32e85353d93872c67,64c7fed44a04f777bb1e18ce,64c80096a2334d1ce1c7ef74,right,-1,0.75,0.5,16,-0.012993432,1.1672,,,,,,101,0,101,0,1,,,,,
,,850303,001,2023-07-31_20h43.05.105,arm3_eps,2022.2.5,Win32,59.96282305,5f632ea32e85353d93872c67,64c7fed44a04f777bb1e18ce,64c80096a2334d1ce1c7ef74,right,-1,0.75,0.5,16,-0.028515365,0.66,,,,,,102,0,102,0,1,,,,,
,,850303,001,2023-07-31_20h43.05.105,arm3_eps,2022.2.5,Win32,59.96282305,5f632ea32e85353d93872c67,64c7fed44a04f777bb1e18ce,64c80096a2334d1ce1c7ef74,right,-1,0.75,0.5,16,-0.041622744,0.609,,,,,,103,0,103,0,1,,,,,
,,850303,001,2023-07-31_20h43.05.105,arm3_eps,2022.2.5,Win32,59.96282305,5f632ea32e85353d93872c67,64c7fed44a04f777bb1e18ce,64c80096a2334d1ce1c7ef74,down,-1,0.75,0.5,17,0,0.4016,,,,,,104,0,104,0,1,,,,,
,,850303,001,2023-07-31_20h43.05.105,arm3_eps,2022.2.5,Win32,59.96282305,5f632ea32e85353d93872c67,64c7fed44a04f777bb1e18ce,64c80096a2334d1ce1c7ef74,right,-1,0.75,0.5,17,0.005567558,0.749,,,,,,105,0,105,0,1,,,,,
,,850303,001,2023-07-31_20h43.05.105,arm3_eps,2022.2.5,Win32,59.96282305,5f632ea32e85353d93872c67,64c7fed44a04f777bb1e18ce,64c80096a2334d1ce1c7ef74,right,-1,0.75,0.5,17,0.014141012,0.3214,,,,,,106,0,106,0,1,,,,,
,,850303,001,2023-07-31_20h43.05.105,arm3_eps,2022.2.5,Win32,59.96282305,5f632ea32e85353d93872c67,64c7fed44a04f777bb1e18ce,64c80096a2334d1ce1c7ef74,right,-1,0.75,0.5,17,0.010189286,0.3719,,,,,,107,0,107,0,1,,,,,
,,850303,001,2023-07-31_20h43.05.105,arm3_eps,2022.2.5,Win32,59.96282305,5f632ea32e85353d93872c67,64c7fed44a04f777bb1e18ce,64c80096a2334d1ce1c7ef74,right,-1,0.75,0.5,17,0.018846472,0.4922,,,,,,108,0,108,0,1,,,,,
,,850303,001,2023-07-31_20h43.05.105,arm3_eps,2022.2.5,Win32,59.96282305,5f632ea32e85353d93872c67,64c7fed44a04f777bb1e18ce,64c80096a2334d1ce1c7ef74,right,-1,0.75,0.5,17,-0.007768689,0.6082,,,,,,109,0,109,0,1,,,,,
,,850303,001,2023-07-31_20h43.05.105,arm3_eps,2022.2.5,Win32,59.96282305,5f632ea32e85353d93872c67,64c7fed44a04f777bb1e18ce,64c80096a2334d1ce1c7ef74,down,1,0.75,0.5,18,0,0.5916,,,,,,110,0,110,0,1,,,,,
,,850303,001,2023-07-31_20h43.05.105,arm3_eps,2022.2.5,Win32,59.96282305,5f632ea32e85353d93872c67,64c7fed44a04f777bb1e18ce,64c80096a2334d1ce1c7ef74,right,1,0.75,0.5,18,0.000401963,1.2281,,,,,,111,0,111,0,1,,,,,
,,850303,001,2023-07-31_20h43.05.105,arm3_eps,2022.2.5,Win32,59.96282305,5f632ea32e85353d93872c67,64c7fed44a04f777bb1e18ce,64c80096a2334d1ce1c7ef74,right,1,0.75,0.5,18,0.005066053,0.3821,,,,,,112,0,112,0,1,,,,,
,,850303,001,2023-07-31_20h43.05.105,arm3_eps,2022.2.5,Win32,59.96282305,5f632ea32e85353d93872c67,64c7fed44a04f777bb1e18ce,64c80096a2334d1ce1c7ef74,right,1,0.75,0.5,18,0.011482958,0.4308,,,,,,113,0,113,0,1,,,,,
,,850303,001,2023-07-31_20h43.05.105,arm3_eps,2022.2.5,Win32,59.96282305,5f632ea32e85353d93872c67,64c7fed44a04f777bb1e18ce,64c80096a2334d1ce1c7ef74,right,1,0.75,0.5,18,0.016557193,0.4765,,,,,,114,0,114,0,1,,,,,
,,850303,001,2023-07-31_20h43.05.105,arm3_eps,2022.2.5,Win32,59.96282305,5f632ea32e85353d93872c67,64c7fed44a04f777bb1e18ce,64c80096a2334d1ce1c7ef74,right,1,0.75,0.5,18,0.002789034,0.4884,,,,,,115,0,115,0,1,,,,,
,,850303,001,2023-07-31_20h43.05.105,arm3_eps,2022.2.5,Win32,59.96282305,5f632ea32e85353d93872c67,64c7fed44a04f777bb1e18ce,64c80096a2334d1ce1c7ef74,right,1,0.75,0.5,18,0.009912996,0.5975,,,,,,116,0,116,0,1,,,,,
,,850303,001,2023-07-31_20h43.05.105,arm3_eps,2022.2.5,Win32,59.96282305,5f632ea32e85353d93872c67,64c7fed44a04f777bb1e18ce,64c80096a2334d1ce1c7ef74,right,1,0.75,0.5,18,0.025345963,0.3881,,,,,,117,0,117,0,1,,,,,
,,850303,001,2023-07-31_20h43.05.105,arm3_eps,2022.2.5,Win32,59.96282305,5f632ea32e85353d93872c67,64c7fed44a04f777bb1e18ce,64c80096a2334d1ce1c7ef74,right,1,0.75,0.5,18,0.025869355,0.5641,,,,,,118,0,118,0,1,,,,,
,,850303,001,2023-07-31_20h43.05.105,arm3_eps,2022.2.5,Win32,59.96282305,5f632ea32e85353d93872c67,64c7fed44a04f777bb1e18ce,64c80096a2334d1ce1c7ef74,right,1,0.75,0.5,18,-0.00556045,0.5162,,,,,,119,0,119,0,1,,,,,
,,850303,001,2023-07-31_20h43.05.105,arm3_eps,2022.2.5,Win32,59.96282305,5f632ea32e85353d93872c67,64c7fed44a04f777bb1e18ce,64c80096a2334d1ce1c7ef74,right,1,0.75,0.5,18,0.038128889,0.4809,,,,,,120,0,120,0,1,,,,,
,,850303,001,2023-07-31_20h43.05.105,arm3_eps,2022.2.5,Win32,59.96282305,5f632ea32e85353d93872c67,64c7fed44a04f777bb1e18ce,64c80096a2334d1ce1c7ef74,up,-1,0.75,0.5,19,0,0.5074,,,,,,121,0,121,0,1,,,,,
,,850303,001,2023-07-31_20h43.05.105,arm3_eps,2022.2.5,Win32,59.96282305,5f632ea32e85353d93872c67,64c7fed44a04f777bb1e18ce,64c80096a2334d1ce1c7ef74,right,-1,0.75,0.5,19,-0.00655097,1.0284,,,,,,122,0,122,0,1,,,,,
,,850303,001,2023-07-31_20h43.05.105,arm3_eps,2022.2.5,Win32,59.96282305,5f632ea32e85353d93872c67,64c7fed44a04f777bb1e18ce,64c80096a2334d1ce1c7ef74,right,-1,0.75,0.5,19,-0.048711409,0.3723,,,,,,123,0,123,0,1,,,,,
,,850303,001,2023-07-31_20h43.05.105,arm3_eps,2022.2.5,Win32,59.96282305,5f632ea32e85353d93872c67,64c7fed44a04f777bb1e18ce,64c80096a2334d1ce1c7ef74,down,1,0.75,0.5,19,0,0.5007,,,,,,124,0,124,0,1,,,,,
,,850303,001,2023-07-31_20h43.05.105,arm3_eps,2022.2.5,Win32,59.96282305,5f632ea32e85353d93872c67,64c7fed44a04f777bb1e18ce,64c80096a2334d1ce1c7ef74,right,1,0.75,0.5,19,0.018020583,0.9968,,,,,,125,0,125,0,1,,,,,
,,850303,001,2023-07-31_20h43.05.105,arm3_eps,2022.2.5,Win32,59.96282305,5f632ea32e85353d93872c67,64c7fed44a04f777bb1e18ce,64c80096a2334d1ce1c7ef74,right,1,0.75,0.5,19,0.034215039,0.2556,,,,,,126,0,126,0,1,,,,,
,,850303,001,2023-07-31_20h43.05.105,arm3_eps,2022.2.5,Win32,59.96282305,5f632ea32e85353d93872c67,64c7fed44a04f777bb1e18ce,64c80096a2334d1ce1c7ef74,right,1,0.75,0.5,19,0.045594326,0.3806,,,,,,127,0,127,0,1,,,,,
,,850303,001,2023-07-31_20h43.05.105,arm3_eps,2022.2.5,Win32,59.96282305,5f632ea32e85353d93872c67,64c7fed44a04f777bb1e18ce,64c80096a2334d1ce1c7ef74,up,-1,0.75,0.5,20,0,0.421,,,,,,128,0,128,0,1,,,,,
,,850303,001,2023-07-31_20h43.05.105,arm3_eps,2022.2.5,Win32,59.96282305,5f632ea32e85353d93872c67,64c7fed44a04f777bb1e18ce,64c80096a2334d1ce1c7ef74,right,-1,0.75,0.5,20,-0.019577557,0.9984,,,,,,129,0,129,0,1,,,,,
,,850303,001,2023-07-31_20h43.05.105,arm3_eps,2022.2.5,Win32,59.96282305,5f632ea32e85353d93872c67,64c7fed44a04f777bb1e18ce,64c80096a2334d1ce1c7ef74,right,-1,0.75,0.5,20,-0.006691932,0.3866,,,,,,130,0,130,0,1,,,,,
,,850303,001,2023-07-31_20h43.05.105,arm3_eps,2022.2.5,Win32,59.96282305,5f632ea32e85353d93872c67,64c7fed44a04f777bb1e18ce,64c80096a2334d1ce1c7ef74,right,-1,0.75,0.5,20,-0.019136676,0.3714,,,,,,131,0,131,0,1,,,,,
,,850303,001,2023-07-31_20h43.05.105,arm3_eps,2022.2.5,Win32,59.96282305,5f632ea32e85353d93872c67,64c7fed44a04f777bb1e18ce,64c80096a2334d1ce1c7ef74,right,-1,0.75,0.5,20,-0.003967697,0.3798,,,,,,132,0,132,0,1,,,,,
,,850303,001,2023-07-31_20h43.05.105,arm3_eps,2022.2.5,Win32,59.96282305,5f632ea32e85353d93872c67,64c7fed44a04f777bb1e18ce,64c80096a2334d1ce1c7ef74,right,-1,0.75,0.5,20,-0.015074762,0.3393,,,,,,133,0,133,0,1,,,,,
,,850303,001,2023-07-31_20h43.05.105,arm3_eps,2022.2.5,Win32,59.96282305,5f632ea32e85353d93872c67,64c7fed44a04f777bb1e18ce,64c80096a2334d1ce1c7ef74,right,-1,0.75,0.5,20,-0.037294199,0.3888,,,,,,134,0,134,0,1,,,,,
,,850303,001,2023-07-31_20h43.05.105,arm3_eps,2022.2.5,Win32,59.96282305,5f632ea32e85353d93872c67,64c7fed44a04f777bb1e18ce,64c80096a2334d1ce1c7ef74,down,-1,0.75,0.5,21,0,0.3813,,,,,,135,0,135,0,1,,,,,
,,850303,001,2023-07-31_20h43.05.105,arm3_eps,2022.2.5,Win32,59.96282305,5f632ea32e85353d93872c67,64c7fed44a04f777bb1e18ce,64c80096a2334d1ce1c7ef74,right,-1,0.75,0.5,21,0.000546032,0.7145,,,,,,136,0,136,0,1,,,,,
,,850303,001,2023-07-31_20h43.05.105,arm3_eps,2022.2.5,Win32,59.96282305,5f632ea32e85353d93872c67,64c7fed44a04f777bb1e18ce,64c80096a2334d1ce1c7ef74,right,-1,0.75,0.5,21,-0.039713628,0.4158,,,,,,137,0,137,0,1,,,,,
,,850303,001,2023-07-31_20h43.05.105,arm3_eps,2022.2.5,Win32,59.96282305,5f632ea32e85353d93872c67,64c7fed44a04f777bb1e18ce,64c80096a2334d1ce1c7ef74,right,-1,0.75,0.5,21,-0.054107874,0.5748,,,,,,138,0,138,0,1,,,,,
,,850303,001,2023-07-31_20h43.05.105,arm3_eps,2022.2.5,Win32,59.96282305,5f632ea32e85353d93872c67,64c7fed44a04f777bb1e18ce,64c80096a2334d1ce1c7ef74,right,-1,0.75,0.5,21,-0.046509779,0.624,,,,,,139,0,139,0,1,,,,,
,,850303,001,2023-07-31_20h43.05.105,arm3_eps,2022.2.5,Win32,59.96282305,5f632ea32e85353d93872c67,64c7fed44a04f777bb1e18ce,64c80096a2334d1ce1c7ef74,down,-1,0.75,0.5,22,0,0.5662,,,,,,140,0,140,0,1,,,,,
,,850303,001,2023-07-31_20h43.05.105,arm3_eps,2022.2.5,Win32,59.96282305,5f632ea32e85353d93872c67,64c7fed44a04f777bb1e18ce,64c80096a2334d1ce1c7ef74,right,-1,0.75,0.5,22,0.01271645,0.9953,,,,,,141,0,141,0,1,,,,,
,,850303,001,2023-07-31_20h43.05.105,arm3_eps,2022.2.5,Win32,59.96282305,5f632ea32e85353d93872c67,64c7fed44a04f777bb1e18ce,64c80096a2334d1ce1c7ef74,right,-1,0.75,0.5,22,-0.001773362,0.2616,,,,,,142,0,142,0,1,,,,,
,,850303,001,2023-07-31_20h43.05.105,arm3_eps,2022.2.5,Win32,59.96282305,5f632ea32e85353d93872c67,64c7fed44a04f777bb1e18ce,64c80096a2334d1ce1c7ef74,right,-1,0.75,0.5,22,-0.010041114,0.4118,,,,,,143,0,143,0,1,,,,,
,,850303,001,2023-07-31_20h43.05.105,arm3_eps,2022.2.5,Win32,59.96282305,5f632ea32e85353d93872c67,64c7fed44a04f777bb1e18ce,64c80096a2334d1ce1c7ef74,right,-1,0.75,0.5,22,0.009855332,0.4428,,,,,,144,0,144,0,1,,,,,
,,850303,001,2023-07-31_20h43.05.105,arm3_eps,2022.2.5,Win32,59.96282305,5f632ea32e85353d93872c67,64c7fed44a04f777bb1e18ce,64c80096a2334d1ce1c7ef74,right,-1,0.75,0.5,22,-0.014395696,0.4405,,,,,,145,0,145,0,1,,,,,
,,850303,001,2023-07-31_20h43.05.105,arm3_eps,2022.2.5,Win32,59.96282305,5f632ea32e85353d93872c67,64c7fed44a04f777bb1e18ce,64c80096a2334d1ce1c7ef74,right,-1,0.75,0.5,22,-0.025484769,0.3978,,,,,,146,0,146,0,1,,,,,
,,850303,001,2023-07-31_20h43.05.105,arm3_eps,2022.2.5,Win32,59.96282305,5f632ea32e85353d93872c67,64c7fed44a04f777bb1e18ce,64c80096a2334d1ce1c7ef74,down,1,0.75,0.5,22,0,0.6142,,,,,,147,0,147,0,1,,,,,
,,850303,001,2023-07-31_20h43.05.105,arm3_eps,2022.2.5,Win32,59.96282305,5f632ea32e85353d93872c67,64c7fed44a04f777bb1e18ce,64c80096a2334d1ce1c7ef74,right,1,0.75,0.5,22,0.003993566,0.8899,,,,,,148,0,148,0,1,,,,,
,,850303,001,2023-07-31_20h43.05.105,arm3_eps,2022.2.5,Win32,59.96282305,5f632ea32e85353d93872c67,64c7fed44a04f777bb1e18ce,64c80096a2334d1ce1c7ef74,right,1,0.75,0.5,22,0.035029255,0.3686,,,,,,149,0,149,0,1,,,,,
,,850303,001,2023-07-31_20h43.05.105,arm3_eps,2022.2.5,Win32,59.96282305,5f632ea32e85353d93872c67,64c7fed44a04f777bb1e18ce,64c80096a2334d1ce1c7ef74,right,1,0.75,0.5,22,0.001169396,0.394,,,,,,150,0,150,0,1,,,,,
,,850303,001,2023-07-31_20h43.05.105,arm3_eps,2022.2.5,Win32,59.96282305,5f632ea32e85353d93872c67,64c7fed44a04f777bb1e18ce,64c80096a2334d1ce1c7ef74,right,1,0.75,0.5,22,-0.015920052,0.3693,,,,,,151,0,151,0,1,,,,,
,,850303,001,2023-07-31_20h43.05.105,arm3_eps,2022.2.5,Win32,59.96282305,5f632ea32e85353d93872c67,64c7fed44a04f777bb1e18ce,64c80096a2334d1ce1c7ef74,right,1,0.75,0.5,22,-0.013012387,0.4097,,,,,,152,0,152,0,1,,,,,
,,850303,001,2023-07-31_20h43.05.105,arm3_eps,2022.2.5,Win32,59.96282305,5f632ea32e85353d93872c67,64c7fed44a04f777bb1e18ce,64c80096a2334d1ce1c7ef74,right,1,0.75,0.5,22,-0.028510956,0.3937,,,,,,153,0,153,0,1,,,,,
,,850303,001,2023-07-31_20h43.05.105,arm3_eps,2022.2.5,Win32,59.96282305,5f632ea32e85353d93872c67,64c7fed44a04f777bb1e18ce,64c80096a2334d1ce1c7ef74,right,1,0.75,0.5,22,0.003731815,0.4177,,,,,,154,0,154,0,1,,,,,
,,850303,001,2023-07-31_20h43.05.105,arm3_eps,2022.2.5,Win32,59.96282305,5f632ea32e85353d93872c67,64c7fed44a04f777bb1e18ce,64c80096a2334d1ce1c7ef74,right,1,0.75,0.5,22,0.004489777,0.3994,,,,,,155,0,155,0,1,,,,,
,,850303,001,2023-07-31_20h43.05.105,arm3_eps,2022.2.5,Win32,59.96282305,5f632ea32e85353d93872c67,64c7fed44a04f777bb1e18ce,64c80096a2334d1ce1c7ef74,right,1,0.75,0.5,22,0.006905846,0.3825,,,,,,156,0,156,0,1,,,,,
,,850303,001,2023-07-31_20h43.05.105,arm3_eps,2022.2.5,Win32,59.96282305,5f632ea32e85353d93872c67,64c7fed44a04f777bb1e18ce,64c80096a2334d1ce1c7ef74,right,1,0.75,0.5,22,0.016141856,0.5443,,,,,,157,0,157,0,1,,,,,
,,850303,001,2023-07-31_20h43.05.105,arm3_eps,2022.2.5,Win32,59.96282305,5f632ea32e85353d93872c67,64c7fed44a04f777bb1e18ce,64c80096a2334d1ce1c7ef74,right,1,0.75,0.5,22,0.017219615,0.4492,,,,,,158,0,158,0,1,,,,,
,,850303,001,2023-07-31_20h43.05.105,arm3_eps,2022.2.5,Win32,59.96282305,5f632ea32e85353d93872c67,64c7fed44a04f777bb1e18ce,64c80096a2334d1ce1c7ef74,right,1,0.75,0.5,22,0.028137019,0.4395,,,,,,159,0,159,0,1,,,,,
,,850303,001,2023-07-31_20h43.05.105,arm3_eps,2022.2.5,Win32,59.96282305,5f632ea32e85353d93872c67,64c7fed44a04f777bb1e18ce,64c80096a2334d1ce1c7ef74,up,1,0.75,0.5,23,0,0.5644,,,,,,160,0,160,0,1,,,,,
,,850303,001,2023-07-31_20h43.05.105,arm3_eps,2022.2.5,Win32,59.96282305,5f632ea32e85353d93872c67,64c7fed44a04f777bb1e18ce,64c80096a2334d1ce1c7ef74,right,1,0.75,0.5,23,0.007747372,0.8096,,,,,,161,0,161,0,1,,,,,
,,850303,001,2023-07-31_20h43.05.105,arm3_eps,2022.2.5,Win32,59.96282305,5f632ea32e85353d93872c67,64c7fed44a04f777bb1e18ce,64c80096a2334d1ce1c7ef74,right,1,0.75,0.5,23,0.002794934,0.3876,,,,,,162,0,162,0,1,,,,,
,,850303,001,2023-07-31_20h43.05.105,arm3_eps,2022.2.5,Win32,59.96282305,5f632ea32e85353d93872c67,64c7fed44a04f777bb1e18ce,64c80096a2334d1ce1c7ef74,right,1,0.75,0.5,23,-0.002980682,0.4444,,,,,,163,0,163,0,1,,,,,
,,850303,001,2023-07-31_20h43.05.105,arm3_eps,2022.2.5,Win32,59.96282305,5f632ea32e85353d93872c67,64c7fed44a04f777bb1e18ce,64c80096a2334d1ce1c7ef74,right,1,0.75,0.5,23,-0.000296926,0.3546,,,,,,164,0,164,0,1,,,,,
,,850303,001,2023-07-31_20h43.05.105,arm3_eps,2022.2.5,Win32,59.96282305,5f632ea32e85353d93872c67,64c7fed44a04f777bb1e18ce,64c80096a2334d1ce1c7ef74,right,1,0.75,0.5,23,0.006344147,0.3813,,,,,,165,0,165,0,1,,,,,
,,850303,001,2023-07-31_20h43.05.105,arm3_eps,2022.2.5,Win32,59.96282305,5f632ea32e85353d93872c67,64c7fed44a04f777bb1e18ce,64c80096a2334d1ce1c7ef74,right,1,0.75,0.5,23,0.025011626,0.3469,,,,,,166,0,166,0,1,,,,,
,,850303,001,2023-07-31_20h43.05.105,arm3_eps,2022.2.5,Win32,59.96282305,5f632ea32e85353d93872c67,64c7fed44a04f777bb1e18ce,64c80096a2334d1ce1c7ef74,right,1,0.75,0.5,23,0.018712652,0.4518,,,,,,167,0,167,0,1,,,,,
,,850303,001,2023-07-31_20h43.05.105,arm3_eps,2022.2.5,Win32,59.96282305,5f632ea32e85353d93872c67,64c7fed44a04f777bb1e18ce,64c80096a2334d1ce1c7ef74,right,1,0.75,0.5,23,0.006065986,0.3307,,,,,,168,0,168,0,1,,,,,
,,850303,001,2023-07-31_20h43.05.105,arm3_eps,2022.2.5,Win32,59.96282305,5f632ea32e85353d93872c67,64c7fed44a04f777bb1e18ce,64c80096a2334d1ce1c7ef74,up,-1,0.75,0.5,24,0,0.7959,,,,,,169,0,169,0,1,,,,,
,,850303,001,2023-07-31_20h43.05.105,arm3_eps,2022.2.5,Win32,59.96282305,5f632ea32e85353d93872c67,64c7fed44a04f777bb1e18ce,64c80096a2334d1ce1c7ef74,right,-1,0.75,0.5,24,-0.026812629,0.8881,,,,,,170,0,170,0,1,,,,,
,,850303,001,2023-07-31_20h43.05.105,arm3_eps,2022.2.5,Win32,59.96282305,5f632ea32e85353d93872c67,64c7fed44a04f777bb1e18ce,64c80096a2334d1ce1c7ef74,right,-1,0.75,0.5,24,-0.050424663,0.4393,,,,,,171,0,171,0,1,,,,,
,,850303,001,2023-07-31_20h43.05.105,arm3_eps,2022.2.5,Win32,59.96282305,5f632ea32e85353d93872c67,64c7fed44a04f777bb1e18ce,64c80096a2334d1ce1c7ef74,down,-1,0.75,0.5,25,0,0.4053,,,,,,172,0,172,0,1,,,,,
,,850303,001,2023-07-31_20h43.05.105,arm3_eps,2022.2.5,Win32,59.96282305,5f632ea32e85353d93872c67,64c7fed44a04f777bb1e18ce,64c80096a2334d1ce1c7ef74,right,-1,0.75,0.5,25,-0.001312623,0.9863,,,,,,173,0,173,0,1,,,,,
,,850303,001,2023-07-31_20h43.05.105,arm3_eps,2022.2.5,Win32,59.96282305,5f632ea32e85353d93872c67,64c7fed44a04f777bb1e18ce,64c80096a2334d1ce1c7ef74,right,-1,0.75,0.5,25,-0.010638138,0.6155,,,,,,174,0,174,0,1,,,,,
,,850303,001,2023-07-31_20h43.05.105,arm3_eps,2022.2.5,Win32,59.96282305,5f632ea32e85353d93872c67,64c7fed44a04f777bb1e18ce,64c80096a2334d1ce1c7ef74,down,-1,0.75,0.5,26,0,0.5817,,,,,,175,0,175,0,1,,,,,
,,850303,001,2023-07-31_20h43.05.105,arm3_eps,2022.2.5,Win32,59.96282305,5f632ea32e85353d93872c67,64c7fed44a04f777bb1e18ce,64c80096a2334d1ce1c7ef74,right,-1,0.75,0.5,26,-0.003173804,0.9384,,,,,,176,0,176,0,1,,,,,
,,850303,001,2023-07-31_20h43.05.105,arm3_eps,2022.2.5,Win32,59.96282305,5f632ea32e85353d93872c67,64c7fed44a04f777bb1e18ce,64c80096a2334d1ce1c7ef74,right,-1,0.75,0.5,26,0.004462609,0.3905,,,,,,177,0,177,0,1,,,,,
,,850303,001,2023-07-31_20h43.05.105,arm3_eps,2022.2.5,Win32,59.96282305,5f632ea32e85353d93872c67,64c7fed44a04f777bb1e18ce,64c80096a2334d1ce1c7ef74,right,-1,0.75,0.5,26,-0.005336556,0.4139,,,,,,178,0,178,0,1,,,,,
,,850303,001,2023-07-31_20h43.05.105,arm3_eps,2022.2.5,Win32,59.96282305,5f632ea32e85353d93872c67,64c7fed44a04f777bb1e18ce,64c80096a2334d1ce1c7ef74,right,-1,0.75,0.5,26,0.013204952,0.3404,,,,,,179,0,179,0,1,,,,,
,,850303,001,2023-07-31_20h43.05.105,arm3_eps,2022.2.5,Win32,59.96282305,5f632ea32e85353d93872c67,64c7fed44a04f777bb1e18ce,64c80096a2334d1ce1c7ef74,right,-1,0.75,0.5,26,0.014396302,0.5903,,,,,,180,0,180,0,1,,,,,
,,850303,001,2023-07-31_20h43.05.105,arm3_eps,2022.2.5,Win32,59.96282305,5f632ea32e85353d93872c67,64c7fed44a04f777bb1e18ce,64c80096a2334d1ce1c7ef74,right,-1,0.75,0.5,26,-0.002216566,0.4389,,,,,,181,0,181,0,1,,,,,
,,850303,001,2023-07-31_20h43.05.105,arm3_eps,2022.2.5,Win32,59.96282305,5f632ea32e85353d93872c67,64c7fed44a04f777bb1e18ce,64c80096a2334d1ce1c7ef74,right,-1,0.75,0.5,26,-0.014309976,0.4153,,,,,,182,0,182,0,1,,,,,
,,850303,001,2023-07-31_20h43.05.105,arm3_eps,2022.2.5,Win32,59.96282305,5f632ea32e85353d93872c67,64c7fed44a04f777bb1e18ce,64c80096a2334d1ce1c7ef74,right,-1,0.75,0.5,26,0.001049234,0.5392,,,,,,183,0,183,0,1,,,,,
,,850303,001,2023-07-31_20h43.05.105,arm3_eps,2022.2.5,Win32,59.96282305,5f632ea32e85353d93872c67,64c7fed44a04f777bb1e18ce,64c80096a2334d1ce1c7ef74,down,-1,0.75,0.5,27,0,0.7175,,,,,,184,0,184,0,1,,,,,
,,850303,001,2023-07-31_20h43.05.105,arm3_eps,2022.2.5,Win32,59.96282305,5f632ea32e85353d93872c67,64c7fed44a04f777bb1e18ce,64c80096a2334d1ce1c7ef74,right,-1,0.75,0.5,27,-0.030755431,0.9413,,,,,,185,0,185,0,1,,,,,
,,850303,001,2023-07-31_20h43.05.105,arm3_eps,2022.2.5,Win32,59.96282305,5f632ea32e85353d93872c67,64c7fed44a04f777bb1e18ce,64c80096a2334d1ce1c7ef74,right,-1,0.75,0.5,27,-0.015016782,0.4896,,,,,,186,0,186,0,1,,,,,
,,850303,001,2023-07-31_20h43.05.105,arm3_eps,2022.2.5,Win32,59.96282305,5f632ea32e85353d93872c67,64c7fed44a04f777bb1e18ce,64c80096a2334d1ce1c7ef74,right,-1,0.75,0.5,27,-0.004066162,0.3655,,,,,,187,0,187,0,1,,,,,
,,850303,001,2023-07-31_20h43.05.105,arm3_eps,2022.2.5,Win32,59.96282305,5f632ea32e85353d93872c67,64c7fed44a04f777bb1e18ce,64c80096a2334d1ce1c7ef74,right,-1,0.75,0.5,27,-0.025142401,0.3981,,,,,,188,0,188,0,1,,,,,
,,850303,001,2023-07-31_20h43.05.105,arm3_eps,2022.2.5,Win32,59.96282305,5f632ea32e85353d93872c67,64c7fed44a04f777bb1e18ce,64c80096a2334d1ce1c7ef74,right,-1,0.75,0.5,27,-0.016190796,0.4455,,,,,,189,0,189,0,1,,,,,
,,850303,001,2023-07-31_20h43.05.105,arm3_eps,2022.2.5,Win32,59.96282305,5f632ea32e85353d93872c67,64c7fed44a04f777bb1e18ce,64c80096a2334d1ce1c7ef74,right,-1,0.75,0.5,27,-0.003948627,0.6992,,,,,,190,0,190,0,1,,,,,
,,850303,001,2023-07-31_20h43.05.105,arm3_eps,2022.2.5,Win32,59.96282305,5f632ea32e85353d93872c67,64c7fed44a04f777bb1e18ce,64c80096a2334d1ce1c7ef74,down,1,0.75,0.5,27,0,0.5263,,,,,,191,0,191,0,1,,,,,
,,850303,001,2023-07-31_20h43.05.105,arm3_eps,2022.2.5,Win32,59.96282305,5f632ea32e85353d93872c67,64c7fed44a04f777bb1e18ce,64c80096a2334d1ce1c7ef74,right,1,0.75,0.5,27,0.074659611,0.967,,,,,,192,0,192,0,1,,,,,
,,850303,001,2023-07-31_20h43.05.105,arm3_eps,2022.2.5,Win32,59.96282305,5f632ea32e85353d93872c67,64c7fed44a04f777bb1e18ce,64c80096a2334d1ce1c7ef74,up,-1,0.75,0.5,28,0,0.5206,,,,,,193,0,193,0,1,,,,,
,,850303,001,2023-07-31_20h43.05.105,arm3_eps,2022.2.5,Win32,59.96282305,5f632ea32e85353d93872c67,64c7fed44a04f777bb1e18ce,64c80096a2334d1ce1c7ef74,right,-1,0.75,0.5,28,-0.033777675,1.0258,,,,,,194,0,194,0,1,,,,,
,,850303,001,2023-07-31_20h43.05.105,arm3_eps,2022.2.5,Win32,59.96282305,5f632ea32e85353d93872c67,64c7fed44a04f777bb1e18ce,64c80096a2334d1ce1c7ef74,down,-1,0.75,0.5,28,0,0.6262,,,,,,195,0,195,0,1,,,,,
,,850303,001,2023-07-31_20h43.05.105,arm3_eps,2022.2.5,Win32,59.96282305,5f632ea32e85353d93872c67,64c7fed44a04f777bb1e18ce,64c80096a2334d1ce1c7ef74,right,-1,0.75,0.5,28,-0.012009539,0.9995,,,,,,196,0,196,0,1,,,,,
,,850303,001,2023-07-31_20h43.05.105,arm3_eps,2022.2.5,Win32,59.96282305,5f632ea32e85353d93872c67,64c7fed44a04f777bb1e18ce,64c80096a2334d1ce1c7ef74,right,-1,0.75,0.5,28,-0.004327525,1.2095,,,,,,197,0,197,0,1,,,,,
,,850303,001,2023-07-31_20h43.05.105,arm3_eps,2022.2.5,Win32,59.96282305,5f632ea32e85353d93872c67,64c7fed44a04f777bb1e18ce,64c80096a2334d1ce1c7ef74,right,-1,0.75,0.5,28,-0.005525744,0.9925,,,,,,198,0,198,0,1,,,,,
,,850303,001,2023-07-31_20h43.05.105,arm3_eps,2022.2.5,Win32,59.96282305,5f632ea32e85353d93872c67,64c7fed44a04f777bb1e18ce,64c80096a2334d1ce1c7ef74,down,-1,0.75,0.5,29,0,0.7839,,,,,,199,0,199,0,1,,,,,
,,850303,001,2023-07-31_20h43.05.105,arm3_eps,2022.2.5,Win32,59.96282305,5f632ea32e85353d93872c67,64c7fed44a04f777bb1e18ce,64c80096a2334d1ce1c7ef74,right,-1,0.75,0.5,29,-0.051121502,0.9335,,,,,,200,0,200,0,1,,,,,
,,850303,001,2023-07-31_20h43.05.105,arm3_eps,2022.2.5,Win32,59.96282305,5f632ea32e85353d93872c67,64c7fed44a04f777bb1e18ce,64c80096a2334d1ce1c7ef74,down,-1,0.75,0.5,30,0,0.634,,,,,,201,0,201,0,1,,,,,
,,850303,001,2023-07-31_20h43.05.105,arm3_eps,2022.2.5,Win32,59.96282305,5f632ea32e85353d93872c67,64c7fed44a04f777bb1e18ce,64c80096a2334d1ce1c7ef74,right,-1,0.75,0.5,30,-0.025504617,1.3471,,,,,,202,0,202,0,1,,,,,
,,850303,001,2023-07-31_20h43.05.105,arm3_eps,2022.2.5,Win32,59.96282305,5f632ea32e85353d93872c67,64c7fed44a04f777bb1e18ce,64c80096a2334d1ce1c7ef74,right,-1,0.75,0.5,30,-0.003066964,0.7613,,,,,,203,0,203,0,1,,,,,
,,850303,001,2023-07-31_20h43.05.105,arm3_eps,2022.2.5,Win32,59.96282305,5f632ea32e85353d93872c67,64c7fed44a04f777bb1e18ce,64c80096a2334d1ce1c7ef74,right,-1,0.75,0.5,30,-0.024488184,0.7234,,,,,,204,0,204,0,1,,,,,
,,850303,001,2023-07-31_20h43.05.105,arm3_eps,2022.2.5,Win32,59.96282305,5f632ea32e85353d93872c67,64c7fed44a04f777bb1e18ce,64c80096a2334d1ce1c7ef74,right,-1,0.75,0.5,30,-0.037770017,0.5014,,,,,,205,0,205,0,1,,,,,
,,850303,001,2023-07-31_20h43.05.105,arm3_eps,2022.2.5,Win32,59.96282305,5f632ea32e85353d93872c67,64c7fed44a04f777bb1e18ce,64c80096a2334d1ce1c7ef74,down,1,0.75,0.5,31,0,0.4804,,,,,,206,0,206,0,1,,,,,
,,850303,001,2023-07-31_20h43.05.105,arm3_eps,2022.2.5,Win32,59.96282305,5f632ea32e85353d93872c67,64c7fed44a04f777bb1e18ce,64c80096a2334d1ce1c7ef74,right,1,0.75,0.5,31,-0.008994353,1.4749,,,,,,207,0,207,0,1,,,,,
,,850303,001,2023-07-31_20h43.05.105,arm3_eps,2022.2.5,Win32,59.96282305,5f632ea32e85353d93872c67,64c7fed44a04f777bb1e18ce,64c80096a2334d1ce1c7ef74,right,1,0.75,0.5,31,0.022884474,0.7312,,,,,,208,0,208,0,1,,,,,
,,850303,001,2023-07-31_20h43.05.105,arm3_eps,2022.2.5,Win32,59.96282305,5f632ea32e85353d93872c67,64c7fed44a04f777bb1e18ce,64c80096a2334d1ce1c7ef74,right,1,0.75,0.5,31,-0.018823278,0.388,,,,,,209,0,209,0,1,,,,,
,,850303,001,2023-07-31_20h43.05.105,arm3_eps,2022.2.5,Win32,59.96282305,5f632ea32e85353d93872c67,64c7fed44a04f777bb1e18ce,64c80096a2334d1ce1c7ef74,right,1,0.75,0.5,31,-0.029068648,0.5317,,,,,,210,0,210,0,1,,,,,
,,850303,001,2023-07-31_20h43.05.105,arm3_eps,2022.2.5,Win32,59.96282305,5f632ea32e85353d93872c67,64c7fed44a04f777bb1e18ce,64c80096a2334d1ce1c7ef74,down,-1,0.75,0.5,30,0,0.4693,,,,,,211,0,211,0,1,,,,,
,,850303,001,2023-07-31_20h43.05.105,arm3_eps,2022.2.5,Win32,59.96282305,5f632ea32e85353d93872c67,64c7fed44a04f777bb1e18ce,64c80096a2334d1ce1c7ef74,right,-1,0.75,0.5,30,-0.006227161,1.0635,,,,,,212,0,212,0,1,,,,,
,,850303,001,2023-07-31_20h43.05.105,arm3_eps,2022.2.5,Win32,59.96282305,5f632ea32e85353d93872c67,64c7fed44a04f777bb1e18ce,64c80096a2334d1ce1c7ef74,right,-1,0.75,0.5,30,-0.037100103,0.5907,,,,,,213,0,213,0,1,,,,,
,,850303,001,2023-07-31_20h43.05.105,arm3_eps,2022.2.5,Win32,59.96282305,5f632ea32e85353d93872c67,64c7fed44a04f777bb1e18ce,64c80096a2334d1ce1c7ef74,down,-1,0.75,0.5,31,0,0.5024,,,,,,214,0,214,0,1,,,,,
,,850303,001,2023-07-31_20h43.05.105,arm3_eps,2022.2.5,Win32,59.96282305,5f632ea32e85353d93872c67,64c7fed44a04f777bb1e18ce,64c80096a2334d1ce1c7ef74,right,-1,0.75,0.5,31,-0.009710703,1.1114,,,,,,215,0,215,0,1,,,,,
,,850303,001,2023-07-31_20h43.05.105,arm3_eps,2022.2.5,Win32,59.96282305,5f632ea32e85353d93872c67,64c7fed44a04f777bb1e18ce,64c80096a2334d1ce1c7ef74,right,-1,0.75,0.5,31,-0.02339579,0.5012,,,,,,216,0,216,0,1,,,,,
,,850303,001,2023-07-31_20h43.05.105,arm3_eps,2022.2.5,Win32,59.96282305,5f632ea32e85353d93872c67,64c7fed44a04f777bb1e18ce,64c80096a2334d1ce1c7ef74,down,1,0.75,0.5,32,0,0.4151,,,,,,217,0,217,0,1,,,,,
,,850303,001,2023-07-31_20h43.05.105,arm3_eps,2022.2.5,Win32,59.96282305,5f632ea32e85353d93872c67,64c7fed44a04f777bb1e18ce,64c80096a2334d1ce1c7ef74,right,1,0.75,0.5,32,0.033746189,1.4615,,,,,,218,0,218,0,1,,,,,
,,850303,001,2023-07-31_20h43.05.105,arm3_eps,2022.2.5,Win32,59.96282305,5f632ea32e85353d93872c67,64c7fed44a04f777bb1e18ce,64c80096a2334d1ce1c7ef74,right,1,0.75,0.5,32,0.013957297,0.4192,,,,,,219,0,219,0,1,,,,,
,,850303,001,2023-07-31_20h43.05.105,arm3_eps,2022.2.5,Win32,59.96282305,5f632ea32e85353d93872c67,64c7fed44a04f777bb1e18ce,64c80096a2334d1ce1c7ef74,right,1,0.75,0.5,32,0.016799381,0.434,,,,,,220,0,220,0,1,,,,,
,,850303,001,2023-07-31_20h43.05.105,arm3_eps,2022.2.5,Win32,59.96282305,5f632ea32e85353d93872c67,64c7fed44a04f777bb1e18ce,64c80096a2334d1ce1c7ef74,up,-1,0.75,0.5,33,0,0.6793,,,,,,221,0,221,0,1,,,,,
,,850303,001,2023-07-31_20h43.05.105,arm3_eps,2022.2.5,Win32,59.96282305,5f632ea32e85353d93872c67,64c7fed44a04f777bb1e18ce,64c80096a2334d1ce1c7ef74,right,-1,0.75,0.5,33,-0.017549007,0.9368,,,,,,222,0,222,0,1,,,,,
,,850303,001,2023-07-31_20h43.05.105,arm3_eps,2022.2.5,Win32,59.96282305,5f632ea32e85353d93872c67,64c7fed44a04f777bb1e18ce,64c80096a2334d1ce1c7ef74,right,-1,0.75,0.5,33,-0.020355144,0.358,,,,,,223,0,223,0,1,,,,,
,,850303,001,2023-07-31_20h43.05.105,arm3_eps,2022.2.5,Win32,59.96282305,5f632ea32e85353d93872c67,64c7fed44a04f777bb1e18ce,64c80096a2334d1ce1c7ef74,down,-1,0.75,0.5,34,0,0.631,,,,,,224,0,224,0,1,,,,,
,,850303,001,2023-07-31_20h43.05.105,arm3_eps,2022.2.5,Win32,59.96282305,5f632ea32e85353d93872c67,64c7fed44a04f777bb1e18ce,64c80096a2334d1ce1c7ef74,right,-1,0.75,0.5,34,-0.018801339,0.8412,,,,,,225,0,225,0,1,,,,,
,,850303,001,2023-07-31_20h43.05.105,arm3_eps,2022.2.5,Win32,59.96282305,5f632ea32e85353d93872c67,64c7fed44a04f777bb1e18ce,64c80096a2334d1ce1c7ef74,right,-1,0.75,0.5,34,-0.035939719,0.3705,,,,,,226,0,226,0,1,,,,,
,,850303,001,2023-07-31_20h43.05.105,arm3_eps,2022.2.5,Win32,59.96282305,5f632ea32e85353d93872c67,64c7fed44a04f777bb1e18ce,64c80096a2334d1ce1c7ef74,down,1,0.75,0.5,34,0,0.4516,,,,,,227,0,227,0,1,,,,,
,,850303,001,2023-07-31_20h43.05.105,arm3_eps,2022.2.5,Win32,59.96282305,5f632ea32e85353d93872c67,64c7fed44a04f777bb1e18ce,64c80096a2334d1ce1c7ef74,right,1,0.75,0.5,34,0.044965518,1.2547,,,,,,228,0,228,0,1,,,,,
,,850303,001,2023-07-31_20h43.05.105,arm3_eps,2022.2.5,Win32,59.96282305,5f632ea32e85353d93872c67,64c7fed44a04f777bb1e18ce,64c80096a2334d1ce1c7ef74,up,1,0.75,0.5,35,0,0.4861,,,,,,229,0,229,0,1,,,,,
,,850303,001,2023-07-31_20h43.05.105,arm3_eps,2022.2.5,Win32,59.96282305,5f632ea32e85353d93872c67,64c7fed44a04f777bb1e18ce,64c80096a2334d1ce1c7ef74,right,1,0.75,0.5,35,-0.001442281,1.0544,,,,,,230,0,230,0,1,,,,,
,,850303,001,2023-07-31_20h43.05.105,arm3_eps,2022.2.5,Win32,59.96282305,5f632ea32e85353d93872c67,64c7fed44a04f777bb1e18ce,64c80096a2334d1ce1c7ef74,right,1,0.75,0.5,35,0.029034701,0.3596,,,,,,231,0,231,0,1,,,,,
,,850303,001,2023-07-31_20h43.05.105,arm3_eps,2022.2.5,Win32,59.96282305,5f632ea32e85353d93872c67,64c7fed44a04f777bb1e18ce,64c80096a2334d1ce1c7ef74,up,1,0.75,0.5,36,0,0.5603,,,,,,232,0,232,0,1,,,,,
,,850303,001,2023-07-31_20h43.05.105,arm3_eps,2022.2.5,Win32,59.96282305,5f632ea32e85353d93872c67,64c7fed44a04f777bb1e18ce,64c80096a2334d1ce1c7ef74,right,1,0.75,0.5,36,-0.041692124,0.9523,,,,,,233,0,233,0,1,,,,,
,,850303,001,2023-07-31_20h43.05.105,arm3_eps,2022.2.5,Win32,59.96282305,5f632ea32e85353d93872c67,64c7fed44a04f777bb1e18ce,64c80096a2334d1ce1c7ef74,down,1,0.75,0.5,35,0,0.5559,,,,,,234,0,234,0,1,,,,,
,,850303,001,2023-07-31_20h43.05.105,arm3_eps,2022.2.5,Win32,59.96282305,5f632ea32e85353d93872c67,64c7fed44a04f777bb1e18ce,64c80096a2334d1ce1c7ef74,right,1,0.75,0.5,35,-0.005994442,1.099,,,,,,235,0,235,0,1,,,,,
,,850303,001,2023-07-31_20h43.05.105,arm3_eps,2022.2.5,Win32,59.96282305,5f632ea32e85353d93872c67,64c7fed44a04f777bb1e18ce,64c80096a2334d1ce1c7ef74,right,1,0.75,0.5,35,-0.002825871,0.3996,,,,,,236,0,236,0,1,,,,,
,,850303,001,2023-07-31_20h43.05.105,arm3_eps,2022.2.5,Win32,59.96282305,5f632ea32e85353d93872c67,64c7fed44a04f777bb1e18ce,64c80096a2334d1ce1c7ef74,right,1,0.75,0.5,35,0.018581597,0.6714,,,,,,237,0,237,0,1,,,,,
,,850303,001,2023-07-31_20h43.05.105,arm3_eps,2022.2.5,Win32,59.96282305,5f632ea32e85353d93872c67,64c7fed44a04f777bb1e18ce,64c80096a2334d1ce1c7ef74,right,1,0.75,0.5,35,0.017812228,0.6118,,,,,,238,0,238,0,1,,,,,
,,850303,001,2023-07-31_20h43.05.105,arm3_eps,2022.2.5,Win32,59.96282305,5f632ea32e85353d93872c67,64c7fed44a04f777bb1e18ce,64c80096a2334d1ce1c7ef74,right,1,0.75,0.5,35,-0.016718178,0.6514,,,,,,239,0,239,0,1,,,,,
,,850303,001,2023-07-31_20h43.05.105,arm3_eps,2022.2.5,Win32,59.96282305,5f632ea32e85353d93872c67,64c7fed44a04f777bb1e18ce,64c80096a2334d1ce1c7ef74,right,1,0.75,0.5,35,-0.024930548,0.3928,,,,,,240,0,240,0,1,,,,,
,,850303,001,2023-07-31_20h43.05.105,arm3_eps,2022.2.5,Win32,59.96282305,5f632ea32e85353d93872c67,64c7fed44a04f777bb1e18ce,64c80096a2334d1ce1c7ef74,down,1,0.75,0.5,35,0,0.9209,,,,,,241,0,241,0,1,,,,,
,,850303,001,2023-07-31_20h43.05.105,arm3_eps,2022.2.5,Win32,59.96282305,5f632ea32e85353d93872c67,64c7fed44a04f777bb1e18ce,64c80096a2334d1ce1c7ef74,right,1,0.75,0.5,35,-0.021138283,0.9789,,,,,,242,0,242,0,1,,,,,
,,850303,001,2023-07-31_20h43.05.105,arm3_eps,2022.2.5,Win32,59.96282305,5f632ea32e85353d93872c67,64c7fed44a04f777bb1e18ce,64c80096a2334d1ce1c7ef74,right,1,0.75,0.5,35,-0.006242589,0.339,,,,,,243,0,243,0,1,,,,,
,,850303,001,2023-07-31_20h43.05.105,arm3_eps,2022.2.5,Win32,59.96282305,5f632ea32e85353d93872c67,64c7fed44a04f777bb1e18ce,64c80096a2334d1ce1c7ef74,right,1,0.75,0.5,35,0.004986978,0.3098,,,,,,244,0,244,0,1,,,,,
,,850303,001,2023-07-31_20h43.05.105,arm3_eps,2022.2.5,Win32,59.96282305,5f632ea32e85353d93872c67,64c7fed44a04f777bb1e18ce,64c80096a2334d1ce1c7ef74,right,1,0.75,0.5,35,-0.012038196,0.3611,,,,,,245,0,245,0,1,,,,,
,,850303,001,2023-07-31_20h43.05.105,arm3_eps,2022.2.5,Win32,59.96282305,5f632ea32e85353d93872c67,64c7fed44a04f777bb1e18ce,64c80096a2334d1ce1c7ef74,right,1,0.75,0.5,35,-0.001891314,0.4184,,,,,,246,0,246,0,1,,,,,
,,850303,001,2023-07-31_20h43.05.105,arm3_eps,2022.2.5,Win32,59.96282305,5f632ea32e85353d93872c67,64c7fed44a04f777bb1e18ce,64c80096a2334d1ce1c7ef74,right,1,0.75,0.5,35,0.027357255,0.2408,,,,,,247,0,247,0,1,,,,,
,,850303,001,2023-07-31_20h43.05.105,arm3_eps,2022.2.5,Win32,59.96282305,5f632ea32e85353d93872c67,64c7fed44a04f777bb1e18ce,64c80096a2334d1ce1c7ef74,right,1,0.75,0.5,35,0.016500916,0.2387,,,,,,248,0,248,0,1,,,,,
,,850303,001,2023-07-31_20h43.05.105,arm3_eps,2022.2.5,Win32,59.96282305,5f632ea32e85353d93872c67,64c7fed44a04f777bb1e18ce,64c80096a2334d1ce1c7ef74,right,1,0.75,0.5,35,0.019993687,0.2053,,,,,,249,0,249,0,1,,,,,
,,850303,001,2023-07-31_20h43.05.105,arm3_eps,2022.2.5,Win32,59.96282305,5f632ea32e85353d93872c67,64c7fed44a04f777bb1e18ce,64c80096a2334d1ce1c7ef74,right,1,0.75,0.5,35,0.046964395,0.172,,,,,,250,0,250,0,1,,,,,
,,850303,001,2023-07-31_20h43.05.105,arm3_eps,2022.2.5,Win32,59.96282305,5f632ea32e85353d93872c67,64c7fed44a04f777bb1e18ce,64c80096a2334d1ce1c7ef74,right,1,0.75,0.5,35,0.088595444,0.1647,,,,,,251,0,251,0,1,,,,,
,,850303,001,2023-07-31_20h43.05.105,arm3_eps,2022.2.5,Win32,59.96282305,5f632ea32e85353d93872c67,64c7fed44a04f777bb1e18ce,64c80096a2334d1ce1c7ef74,up,-1,0.75,0.5,35,0,0.4687,,,,,,252,0,252,0,1,,,,,
,,850303,001,2023-07-31_20h43.05.105,arm3_eps,2022.2.5,Win32,59.96282305,5f632ea32e85353d93872c67,64c7fed44a04f777bb1e18ce,64c80096a2334d1ce1c7ef74,right,-1,0.75,0.5,35,0.001446084,1.2628,,,,,,253,0,253,0,1,,,,,
,,850303,001,2023-07-31_20h43.05.105,arm3_eps,2022.2.5,Win32,59.96282305,5f632ea32e85353d93872c67,64c7fed44a04f777bb1e18ce,64c80096a2334d1ce1c7ef74,right,-1,0.75,0.5,35,-0.032367641,0.2871,,,,,,254,0,254,0,1,,,,,
,,850303,001,2023-07-31_20h43.05.105,arm3_eps,2022.2.5,Win32,59.96282305,5f632ea32e85353d93872c67,64c7fed44a04f777bb1e18ce,64c80096a2334d1ce1c7ef74,right,-1,0.75,0.5,35,-0.025885171,0.3482,,,,,,255,0,255,0,1,,,,,
,,850303,001,2023-07-31_20h43.05.105,arm3_eps,2022.2.5,Win32,59.96282305,5f632ea32e85353d93872c67,64c7fed44a04f777bb1e18ce,64c80096a2334d1ce1c7ef74,down,-1,0.75,0.5,36,0,0.6757,,,,,,256,0,256,0,1,,,,,
,,850303,001,2023-07-31_20h43.05.105,arm3_eps,2022.2.5,Win32,59.96282305,5f632ea32e85353d93872c67,64c7fed44a04f777bb1e18ce,64c80096a2334d1ce1c7ef74,right,-1,0.75,0.5,36,0.005992786,0.9741,,,,,,257,0,257,0,1,,,,,
,,850303,001,2023-07-31_20h43.05.105,arm3_eps,2022.2.5,Win32,59.96282305,5f632ea32e85353d93872c67,64c7fed44a04f777bb1e18ce,64c80096a2334d1ce1c7ef74,right,-1,0.75,0.5,36,0.025757532,0.2992,,,,,,258,0,258,0,1,,,,,
,,850303,001,2023-07-31_20h43.05.105,arm3_eps,2022.2.5,Win32,59.96282305,5f632ea32e85353d93872c67,64c7fed44a04f777bb1e18ce,64c80096a2334d1ce1c7ef74,right,-1,0.75,0.5,36,0.038548527,0.3892,,,,,,259,0,259,0,1,,,,,
