space_bar.keys,space_bar.rt,participant,session,date,expName,psychopyVersion,OS,frameRate,PROLIFIC_PID,STUDY_ID,SESSION_ID,resp.keys,state,q_prob,eps_prob,score,price,resp.rt,train.thisRepN,train.thisTrialN,train.thisN,train.thisIndex,train.ran,steps.thisRepN,steps.thisTrialN,steps.thisN,steps.thisIndex,steps.ran,blocks.thisRepN,blocks.thisTrialN,blocks.thisN,blocks.thisIndex,blocks.ran
space,13.619,937547,001,2023-07-31_19h44.10.066,arm3_eps,2022.2.5,Win32,60.0240096,5f3d718e8de6ae12265b95ae,64c7fed44a04f777bb1e18ce,64c800ef4456ba0ffa8da6aa,,,,,,,,,,,,,,,,,,,,,,
space,3.312,937547,001,2023-07-31_19h44.10.066,arm3_eps,2022.2.5,Win32,60.0240096,5f3d718e8de6ae12265b95ae,64c7fed44a04f777bb1e18ce,64c800ef4456ba0ffa8da6aa,,,,,,,,,,,,,,,,,,,,,,
space,20.13,937547,001,2023-07-31_19h44.10.066,arm3_eps,2022.2.5,Win32,60.0240096,5f3d718e8de6ae12265b95ae,64c7fed44a04f777bb1e18ce,64c800ef4456ba0ffa8da6aa,,,,,,,,,,,,,,,,,,,,,,
space,13.263,937547,001,2023-07-31_19h44.10.066,arm3_eps,2022.2.5,Win32,60.0240096,5f3d718e8de6ae12265b95ae,64c7fed44a04f777bb1e18ce,64c800ef4456ba0ffa8da6aa,,,,,,,,,,,,,,,,,,,,,,
space,16.098,937547,001,2023-07-31_19h44.10.066,arm3_eps,2022.2.5,Win32,60.0240096,5f3d718e8de6ae12265b95ae,64c7fed44a04f777bb1e18ce,64c800ef4456ba0ffa8da6aa,,,,,,,,,,,,,,,,,,,,,,
space,8.287,937547,001,2023-07-31_19h44.10.066,arm3_eps,2022.2.5,Win32,60.0240096,5f3d718e8de6ae12265b95ae,64c7fed44a04f777bb1e18ce,64c800ef4456ba0ffa8da6aa,,,,,,,,,,,,,,,,,,,,,,
space,2.01,937547,001,2023-07-31_19h44.10.066,arm3_eps,2022.2.5,Win32,60.0240096,5f3d718e8de6ae12265b95ae,64c7fed44a04f777bb1e18ce,64c800ef4456ba0ffa8da6aa,,,,,,,,,,,,,,,,,,,,,,
,,937547,001,2023-07-31_19h44.10.066,arm3_eps,2022.2.5,Win32,60.0240096,5f3d718e8de6ae12265b95ae,64c7fed44a04f777bb1e18ce,64c800ef4456ba0ffa8da6aa,right,-1,1,0.2429,0,-0.019930559,8.676,0,0,0,0,1,,,,,,,,,,
,,937547,001,2023-07-31_19h44.10.066,arm3_eps,2022.2.5,Win32,60.0240096,5f3d718e8de6ae12265b95ae,64c7fed44a04f777bb1e18ce,64c800ef4456ba0ffa8da6aa,right,-1,1,0.2429,0,-0.038252879,4.15,1,0,1,0,1,,,,,,,,,,
,,937547,001,2023-07-31_19h44.10.066,arm3_eps,2022.2.5,Win32,60.0240096,5f3d718e8de6ae12265b95ae,64c7fed44a04f777bb1e18ce,64c800ef4456ba0ffa8da6aa,right,-1,1,0.2429,0,-0.059538249,0.735,2,0,2,0,1,,,,,,,,,,
,,937547,001,2023-07-31_19h44.10.066,arm3_eps,2022.2.5,Win32,60.0240096,5f3d718e8de6ae12265b95ae,64c7fed44a04f777bb1e18ce,64c800ef4456ba0ffa8da6aa,right,-1,1,0.2429,0,-0.033363637,0.4,3,0,3,0,1,,,,,,,,,,
,,937547,001,2023-07-31_19h44.10.066,arm3_eps,2022.2.5,Win32,60.0240096,5f3d718e8de6ae12265b95ae,64c7fed44a04f777bb1e18ce,64c800ef4456ba0ffa8da6aa,right,-1,1,0.2429,0,-0.020286661,0.267,4,0,4,0,1,,,,,,,,,,
,,937547,001,2023-07-31_19h44.10.066,arm3_eps,2022.2.5,Win32,60.0240096,5f3d718e8de6ae12265b95ae,64c7fed44a04f777bb1e18ce,64c800ef4456ba0ffa8da6aa,right,-1,1,0.2429,0,-0.036481737,0.234,5,0,5,0,1,,,,,,,,,,
,,937547,001,2023-07-31_19h44.10.066,arm3_eps,2022.2.5,Win32,60.0240096,5f3d718e8de6ae12265b95ae,64c7fed44a04f777bb1e18ce,64c800ef4456ba0ffa8da6aa,right,-1,1,0.2429,0,-0.014268206,0.25,6,0,6,0,1,,,,,,,,,,
,,937547,001,2023-07-31_19h44.10.066,arm3_eps,2022.2.5,Win32,60.0240096,5f3d718e8de6ae12265b95ae,64c7fed44a04f777bb1e18ce,64c800ef4456ba0ffa8da6aa,right,-1,1,0.2429,0,-0.028843008,0.285,7,0,7,0,1,,,,,,,,,,
,,937547,001,2023-07-31_19h44.10.066,arm3_eps,2022.2.5,Win32,60.0240096,5f3d718e8de6ae12265b95ae,64c7fed44a04f777bb1e18ce,64c800ef4456ba0ffa8da6aa,right,-1,1,0.2429,0,-0.041270041,0.298,8,0,8,0,1,,,,,,,,,,
,,937547,001,2023-07-31_19h44.10.066,arm3_eps,2022.2.5,Win32,60.0240096,5f3d718e8de6ae12265b95ae,64c7fed44a04f777bb1e18ce,64c800ef4456ba0ffa8da6aa,right,-1,1,0.2429,0,-0.060552725,0.451,9,0,9,0,1,,,,,,,,,,
,,937547,001,2023-07-31_19h44.10.066,arm3_eps,2022.2.5,Win32,60.0240096,5f3d718e8de6ae12265b95ae,64c7fed44a04f777bb1e18ce,64c800ef4456ba0ffa8da6aa,right,-1,1,0.2429,0,-0.092128356,0.585,10,0,10,0,1,,,,,,,,,,
,,937547,001,2023-07-31_19h44.10.066,arm3_eps,2022.2.5,Win32,60.0240096,5f3d718e8de6ae12265b95ae,64c7fed44a04f777bb1e18ce,64c800ef4456ba0ffa8da6aa,right,-1,1,0.2429,0,-0.117912616,1.517,11,0,11,0,1,,,,,,,,,,
,,937547,001,2023-07-31_19h44.10.066,arm3_eps,2022.2.5,Win32,60.0240096,5f3d718e8de6ae12265b95ae,64c7fed44a04f777bb1e18ce,64c800ef4456ba0ffa8da6aa,down,1,1,0.2429,1,0,0.95,12,0,12,0,1,,,,,,,,,,
,,937547,001,2023-07-31_19h44.10.066,arm3_eps,2022.2.5,Win32,60.0240096,5f3d718e8de6ae12265b95ae,64c7fed44a04f777bb1e18ce,64c800ef4456ba0ffa8da6aa,right,1,1,0.2429,1,0.036632632,3.002,13,0,13,0,1,,,,,,,,,,
,,937547,001,2023-07-31_19h44.10.066,arm3_eps,2022.2.5,Win32,60.0240096,5f3d718e8de6ae12265b95ae,64c7fed44a04f777bb1e18ce,64c800ef4456ba0ffa8da6aa,right,1,1,0.2429,1,0.024275278,0.213,14,0,14,0,1,,,,,,,,,,
,,937547,001,2023-07-31_19h44.10.066,arm3_eps,2022.2.5,Win32,60.0240096,5f3d718e8de6ae12265b95ae,64c7fed44a04f777bb1e18ce,64c800ef4456ba0ffa8da6aa,right,1,1,0.2429,1,0.017166504,0.185,15,0,15,0,1,,,,,,,,,,
,,937547,001,2023-07-31_19h44.10.066,arm3_eps,2022.2.5,Win32,60.0240096,5f3d718e8de6ae12265b95ae,64c7fed44a04f777bb1e18ce,64c800ef4456ba0ffa8da6aa,right,1,1,0.2429,1,0.04355285,0.183,16,0,16,0,1,,,,,,,,,,
,,937547,001,2023-07-31_19h44.10.066,arm3_eps,2022.2.5,Win32,60.0240096,5f3d718e8de6ae12265b95ae,64c7fed44a04f777bb1e18ce,64c800ef4456ba0ffa8da6aa,right,1,1,0.2429,1,0.051725728,0.169,17,0,17,0,1,,,,,,,,,,
,,937547,001,2023-07-31_19h44.10.066,arm3_eps,2022.2.5,Win32,60.0240096,5f3d718e8de6ae12265b95ae,64c7fed44a04f777bb1e18ce,64c800ef4456ba0ffa8da6aa,right,1,1,0.2429,1,0.074734164,0.167,18,0,18,0,1,,,,,,,,,,
,,937547,001,2023-07-31_19h44.10.066,arm3_eps,2022.2.5,Win32,60.0240096,5f3d718e8de6ae12265b95ae,64c7fed44a04f777bb1e18ce,64c800ef4456ba0ffa8da6aa,right,1,1,0.2429,1,0.126549637,0.185,19,0,19,0,1,,,,,,,,,,
,,937547,001,2023-07-31_19h44.10.066,arm3_eps,2022.2.5,Win32,60.0240096,5f3d718e8de6ae12265b95ae,64c7fed44a04f777bb1e18ce,64c800ef4456ba0ffa8da6aa,right,1,1,0.2429,1,0.097594309,0.185,20,0,20,0,1,,,,,,,,,,
,,937547,001,2023-07-31_19h44.10.066,arm3_eps,2022.2.5,Win32,60.0240096,5f3d718e8de6ae12265b95ae,64c7fed44a04f777bb1e18ce,64c800ef4456ba0ffa8da6aa,right,1,1,0.2429,1,0.086831012,0.184,21,0,21,0,1,,,,,,,,,,
,,937547,001,2023-07-31_19h44.10.066,arm3_eps,2022.2.5,Win32,60.0240096,5f3d718e8de6ae12265b95ae,64c7fed44a04f777bb1e18ce,64c800ef4456ba0ffa8da6aa,right,1,1,0.2429,1,0.111254498,0.218,22,0,22,0,1,,,,,,,,,,
,,937547,001,2023-07-31_19h44.10.066,arm3_eps,2022.2.5,Win32,60.0240096,5f3d718e8de6ae12265b95ae,64c7fed44a04f777bb1e18ce,64c800ef4456ba0ffa8da6aa,right,1,1,0.2429,1,0.123732663,0.184,23,0,23,0,1,,,,,,,,,,
,,937547,001,2023-07-31_19h44.10.066,arm3_eps,2022.2.5,Win32,60.0240096,5f3d718e8de6ae12265b95ae,64c7fed44a04f777bb1e18ce,64c800ef4456ba0ffa8da6aa,right,1,1,0.2429,1,0.144784467,0.184,24,0,24,0,1,,,,,,,,,,
,,937547,001,2023-07-31_19h44.10.066,arm3_eps,2022.2.5,Win32,60.0240096,5f3d718e8de6ae12265b95ae,64c7fed44a04f777bb1e18ce,64c800ef4456ba0ffa8da6aa,up,-1,1,0.2429,2,0,1.847,25,0,25,0,1,,,,,,,,,,
,,937547,001,2023-07-31_19h44.10.066,arm3_eps,2022.2.5,Win32,60.0240096,5f3d718e8de6ae12265b95ae,64c7fed44a04f777bb1e18ce,64c800ef4456ba0ffa8da6aa,right,-1,1,0.2429,2,0.011311548,3.114,26,0,26,0,1,,,,,,,,,,
,,937547,001,2023-07-31_19h44.10.066,arm3_eps,2022.2.5,Win32,60.0240096,5f3d718e8de6ae12265b95ae,64c7fed44a04f777bb1e18ce,64c800ef4456ba0ffa8da6aa,right,-1,1,0.2429,2,0.018191433,0.234,27,0,27,0,1,,,,,,,,,,
,,937547,001,2023-07-31_19h44.10.066,arm3_eps,2022.2.5,Win32,60.0240096,5f3d718e8de6ae12265b95ae,64c7fed44a04f777bb1e18ce,64c800ef4456ba0ffa8da6aa,right,-1,1,0.2429,2,-0.001749225,0.201,28,0,28,0,1,,,,,,,,,,
,,937547,001,2023-07-31_19h44.10.066,arm3_eps,2022.2.5,Win32,60.0240096,5f3d718e8de6ae12265b95ae,64c7fed44a04f777bb1e18ce,64c800ef4456ba0ffa8da6aa,right,-1,1,0.2429,2,-0.009871303,0.253,29,0,29,0,1,,,,,,,,,,
,,937547,001,2023-07-31_19h44.10.066,arm3_eps,2022.2.5,Win32,60.0240096,5f3d718e8de6ae12265b95ae,64c7fed44a04f777bb1e18ce,64c800ef4456ba0ffa8da6aa,right,-1,1,0.2429,2,-0.021162003,0.236,30,0,30,0,1,,,,,,,,,,
,,937547,001,2023-07-31_19h44.10.066,arm3_eps,2022.2.5,Win32,60.0240096,5f3d718e8de6ae12265b95ae,64c7fed44a04f777bb1e18ce,64c800ef4456ba0ffa8da6aa,right,-1,1,0.2429,2,-0.021038294,0.234,31,0,31,0,1,,,,,,,,,,
,,937547,001,2023-07-31_19h44.10.066,arm3_eps,2022.2.5,Win32,60.0240096,5f3d718e8de6ae12265b95ae,64c7fed44a04f777bb1e18ce,64c800ef4456ba0ffa8da6aa,right,-1,1,0.2429,2,-0.012524683,0.233,32,0,32,0,1,,,,,,,,,,
,,937547,001,2023-07-31_19h44.10.066,arm3_eps,2022.2.5,Win32,60.0240096,5f3d718e8de6ae12265b95ae,64c7fed44a04f777bb1e18ce,64c800ef4456ba0ffa8da6aa,right,-1,1,0.2429,2,-0.044643521,0.234,33,0,33,0,1,,,,,,,,,,
,,937547,001,2023-07-31_19h44.10.066,arm3_eps,2022.2.5,Win32,60.0240096,5f3d718e8de6ae12265b95ae,64c7fed44a04f777bb1e18ce,64c800ef4456ba0ffa8da6aa,right,-1,1,0.2429,2,-0.073867692,0.269,34,0,34,0,1,,,,,,,,,,
,,937547,001,2023-07-31_19h44.10.066,arm3_eps,2022.2.5,Win32,60.0240096,5f3d718e8de6ae12265b95ae,64c7fed44a04f777bb1e18ce,64c800ef4456ba0ffa8da6aa,right,-1,1,0.2429,2,-0.069953786,0.335,35,0,35,0,1,,,,,,,,,,
,,937547,001,2023-07-31_19h44.10.066,arm3_eps,2022.2.5,Win32,60.0240096,5f3d718e8de6ae12265b95ae,64c7fed44a04f777bb1e18ce,64c800ef4456ba0ffa8da6aa,right,-1,1,0.2429,2,-0.046361141,0.419,36,0,36,0,1,,,,,,,,,,
,,937547,001,2023-07-31_19h44.10.066,arm3_eps,2022.2.5,Win32,60.0240096,5f3d718e8de6ae12265b95ae,64c7fed44a04f777bb1e18ce,64c800ef4456ba0ffa8da6aa,right,-1,1,0.2429,2,-0.051105536,0.733,37,0,37,0,1,,,,,,,,,,
,,937547,001,2023-07-31_19h44.10.066,arm3_eps,2022.2.5,Win32,60.0240096,5f3d718e8de6ae12265b95ae,64c7fed44a04f777bb1e18ce,64c800ef4456ba0ffa8da6aa,down,-1,1,0.2429,3,0,0.468,38,0,38,0,1,,,,,,,,,,
,,937547,001,2023-07-31_19h44.10.066,arm3_eps,2022.2.5,Win32,60.0240096,5f3d718e8de6ae12265b95ae,64c7fed44a04f777bb1e18ce,64c800ef4456ba0ffa8da6aa,right,-1,1,0.2429,3,0.013076395,1.925,39,0,39,0,1,,,,,,,,,,
,,937547,001,2023-07-31_19h44.10.066,arm3_eps,2022.2.5,Win32,60.0240096,5f3d718e8de6ae12265b95ae,64c7fed44a04f777bb1e18ce,64c800ef4456ba0ffa8da6aa,right,-1,1,0.2429,3,0.016542619,0.235,40,0,40,0,1,,,,,,,,,,
,,937547,001,2023-07-31_19h44.10.066,arm3_eps,2022.2.5,Win32,60.0240096,5f3d718e8de6ae12265b95ae,64c7fed44a04f777bb1e18ce,64c800ef4456ba0ffa8da6aa,right,-1,1,0.2429,3,0.020373038,0.282,41,0,41,0,1,,,,,,,,,,
,,937547,001,2023-07-31_19h44.10.066,arm3_eps,2022.2.5,Win32,60.0240096,5f3d718e8de6ae12265b95ae,64c7fed44a04f777bb1e18ce,64c800ef4456ba0ffa8da6aa,right,-1,1,0.2429,3,0.022490365,0.219,42,0,42,0,1,,,,,,,,,,
,,937547,001,2023-07-31_19h44.10.066,arm3_eps,2022.2.5,Win32,60.0240096,5f3d718e8de6ae12265b95ae,64c7fed44a04f777bb1e18ce,64c800ef4456ba0ffa8da6aa,right,-1,1,0.2429,3,0.022916273,0.238,43,0,43,0,1,,,,,,,,,,
,,937547,001,2023-07-31_19h44.10.066,arm3_eps,2022.2.5,Win32,60.0240096,5f3d718e8de6ae12265b95ae,64c7fed44a04f777bb1e18ce,64c800ef4456ba0ffa8da6aa,right,-1,1,0.2429,3,0.031826766,0.2,44,0,44,0,1,,,,,,,,,,
,,937547,001,2023-07-31_19h44.10.066,arm3_eps,2022.2.5,Win32,60.0240096,5f3d718e8de6ae12265b95ae,64c7fed44a04f777bb1e18ce,64c800ef4456ba0ffa8da6aa,right,-1,1,0.2429,3,0.009976505,0.202,45,0,45,0,1,,,,,,,,,,
,,937547,001,2023-07-31_19h44.10.066,arm3_eps,2022.2.5,Win32,60.0240096,5f3d718e8de6ae12265b95ae,64c7fed44a04f777bb1e18ce,64c800ef4456ba0ffa8da6aa,right,-1,1,0.2429,3,0.01445712,0.155,46,0,46,0,1,,,,,,,,,,
,,937547,001,2023-07-31_19h44.10.066,arm3_eps,2022.2.5,Win32,60.0240096,5f3d718e8de6ae12265b95ae,64c7fed44a04f777bb1e18ce,64c800ef4456ba0ffa8da6aa,right,-1,1,0.2429,3,0.005246225,0.267,47,0,47,0,1,,,,,,,,,,
,,937547,001,2023-07-31_19h44.10.066,arm3_eps,2022.2.5,Win32,60.0240096,5f3d718e8de6ae12265b95ae,64c7fed44a04f777bb1e18ce,64c800ef4456ba0ffa8da6aa,right,-1,1,0.2429,3,0.020510957,0.197,48,0,48,0,1,,,,,,,,,,
,,937547,001,2023-07-31_19h44.10.066,arm3_eps,2022.2.5,Win32,60.0240096,5f3d718e8de6ae12265b95ae,64c7fed44a04f777bb1e18ce,64c800ef4456ba0ffa8da6aa,right,-1,1,0.2429,3,0.003309617,0.203,49,0,49,0,1,,,,,,,,,,
space,10.885,937547,001,2023-07-31_19h44.10.066,arm3_eps,2022.2.5,Win32,60.0240096,5f3d718e8de6ae12265b95ae,64c7fed44a04f777bb1e18ce,64c800ef4456ba0ffa8da6aa,,,,,,,,,,,,,,,,,,,,,,
space,11.633,937547,001,2023-07-31_19h44.10.066,arm3_eps,2022.2.5,Win32,60.0240096,5f3d718e8de6ae12265b95ae,64c7fed44a04f777bb1e18ce,64c800ef4456ba0ffa8da6aa,,,,,,,,,,,,,,,,,,,,,,
space,9.453,937547,001,2023-07-31_19h44.10.066,arm3_eps,2022.2.5,Win32,60.0240096,5f3d718e8de6ae12265b95ae,64c7fed44a04f777bb1e18ce,64c800ef4456ba0ffa8da6aa,,,,,,,,,,,,,,,,,,,,,,
space,6.003,937547,001,2023-07-31_19h44.10.066,arm3_eps,2022.2.5,Win32,60.0240096,5f3d718e8de6ae12265b95ae,64c7fed44a04f777bb1e18ce,64c800ef4456ba0ffa8da6aa,,,,,,,,,,,,,,,,,,,,,,
space,8.416,937547,001,2023-07-31_19h44.10.066,arm3_eps,2022.2.5,Win32,60.0240096,5f3d718e8de6ae12265b95ae,64c7fed44a04f777bb1e18ce,64c800ef4456ba0ffa8da6aa,,,,,,,,,,,,,,,,,,,,,,
space,1.482,937547,001,2023-07-31_19h44.10.066,arm3_eps,2022.2.5,Win32,60.0240096,5f3d718e8de6ae12265b95ae,64c7fed44a04f777bb1e18ce,64c800ef4456ba0ffa8da6aa,,,,,,,,,,,,,,,,,,,,,,
,,937547,001,2023-07-31_19h44.10.066,arm3_eps,2022.2.5,Win32,60.0240096,5f3d718e8de6ae12265b95ae,64c7fed44a04f777bb1e18ce,64c800ef4456ba0ffa8da6aa,right,-1,0.75,0.2429,0,-0.007605403,2.503,0,0,0,0,1,,,,,,,,,,
,,937547,001,2023-07-31_19h44.10.066,arm3_eps,2022.2.5,Win32,60.0240096,5f3d718e8de6ae12265b95ae,64c7fed44a04f777bb1e18ce,64c800ef4456ba0ffa8da6aa,right,-1,0.75,0.2429,0,-0.013314452,1.947,1,0,1,0,1,,,,,,,,,,
,,937547,001,2023-07-31_19h44.10.066,arm3_eps,2022.2.5,Win32,60.0240096,5f3d718e8de6ae12265b95ae,64c7fed44a04f777bb1e18ce,64c800ef4456ba0ffa8da6aa,up,-1,0.75,0.2429,-1,0,1.163,2,0,2,0,1,,,,,,,,,,
,,937547,001,2023-07-31_19h44.10.066,arm3_eps,2022.2.5,Win32,60.0240096,5f3d718e8de6ae12265b95ae,64c7fed44a04f777bb1e18ce,64c800ef4456ba0ffa8da6aa,right,-1,0.75,0.2429,-1,-0.023197103,2.073,3,0,3,0,1,,,,,,,,,,
,,937547,001,2023-07-31_19h44.10.066,arm3_eps,2022.2.5,Win32,60.0240096,5f3d718e8de6ae12265b95ae,64c7fed44a04f777bb1e18ce,64c800ef4456ba0ffa8da6aa,right,-1,0.75,0.2429,-1,-0.060437965,0.707,4,0,4,0,1,,,,,,,,,,
,,937547,001,2023-07-31_19h44.10.066,arm3_eps,2022.2.5,Win32,60.0240096,5f3d718e8de6ae12265b95ae,64c7fed44a04f777bb1e18ce,64c800ef4456ba0ffa8da6aa,down,-1,0.75,0.2429,0,0,0.383,5,0,5,0,1,,,,,,,,,,
,,937547,001,2023-07-31_19h44.10.066,arm3_eps,2022.2.5,Win32,60.0240096,5f3d718e8de6ae12265b95ae,64c7fed44a04f777bb1e18ce,64c800ef4456ba0ffa8da6aa,right,-1,0.75,0.2429,0,-0.005224902,1.789,6,0,6,0,1,,,,,,,,,,
,,937547,001,2023-07-31_19h44.10.066,arm3_eps,2022.2.5,Win32,60.0240096,5f3d718e8de6ae12265b95ae,64c7fed44a04f777bb1e18ce,64c800ef4456ba0ffa8da6aa,right,-1,0.75,0.2429,0,-0.009983206,0.521,7,0,7,0,1,,,,,,,,,,
,,937547,001,2023-07-31_19h44.10.066,arm3_eps,2022.2.5,Win32,60.0240096,5f3d718e8de6ae12265b95ae,64c7fed44a04f777bb1e18ce,64c800ef4456ba0ffa8da6aa,down,1,0.75,0.2429,0,0,1.764,8,0,8,0,1,,,,,,,,,,
,,937547,001,2023-07-31_19h44.10.066,arm3_eps,2022.2.5,Win32,60.0240096,5f3d718e8de6ae12265b95ae,64c7fed44a04f777bb1e18ce,64c800ef4456ba0ffa8da6aa,right,1,0.75,0.2429,0,0.030380869,1.756,9,0,9,0,1,,,,,,,,,,
,,937547,001,2023-07-31_19h44.10.066,arm3_eps,2022.2.5,Win32,60.0240096,5f3d718e8de6ae12265b95ae,64c7fed44a04f777bb1e18ce,64c800ef4456ba0ffa8da6aa,right,1,0.75,0.2429,0,0.017471222,0.666,10,0,10,0,1,,,,,,,,,,
,,937547,001,2023-07-31_19h44.10.066,arm3_eps,2022.2.5,Win32,60.0240096,5f3d718e8de6ae12265b95ae,64c7fed44a04f777bb1e18ce,64c800ef4456ba0ffa8da6aa,up,-1,0.75,0.2429,1,0,0.995,11,0,11,0,1,,,,,,,,,,
,,937547,001,2023-07-31_19h44.10.066,arm3_eps,2022.2.5,Win32,60.0240096,5f3d718e8de6ae12265b95ae,64c7fed44a04f777bb1e18ce,64c800ef4456ba0ffa8da6aa,right,-1,0.75,0.2429,1,0.010275556,1.564,12,0,12,0,1,,,,,,,,,,
,,937547,001,2023-07-31_19h44.10.066,arm3_eps,2022.2.5,Win32,60.0240096,5f3d718e8de6ae12265b95ae,64c7fed44a04f777bb1e18ce,64c800ef4456ba0ffa8da6aa,right,-1,0.75,0.2429,1,-0.016128193,0.707,13,0,13,0,1,,,,,,,,,,
,,937547,001,2023-07-31_19h44.10.066,arm3_eps,2022.2.5,Win32,60.0240096,5f3d718e8de6ae12265b95ae,64c7fed44a04f777bb1e18ce,64c800ef4456ba0ffa8da6aa,down,-1,0.75,0.2429,2,0,0.899,14,0,14,0,1,,,,,,,,,,
,,937547,001,2023-07-31_19h44.10.066,arm3_eps,2022.2.5,Win32,60.0240096,5f3d718e8de6ae12265b95ae,64c7fed44a04f777bb1e18ce,64c800ef4456ba0ffa8da6aa,right,-1,0.75,0.2429,2,-0.005390881,1.051,15,0,15,0,1,,,,,,,,,,
,,937547,001,2023-07-31_19h44.10.066,arm3_eps,2022.2.5,Win32,60.0240096,5f3d718e8de6ae12265b95ae,64c7fed44a04f777bb1e18ce,64c800ef4456ba0ffa8da6aa,right,-1,0.75,0.2429,2,-0.03010269,0.681,16,0,16,0,1,,,,,,,,,,
,,937547,001,2023-07-31_19h44.10.066,arm3_eps,2022.2.5,Win32,60.0240096,5f3d718e8de6ae12265b95ae,64c7fed44a04f777bb1e18ce,64c800ef4456ba0ffa8da6aa,down,1,0.75,0.2429,3,0,0.631,17,0,17,0,1,,,,,,,,,,
,,937547,001,2023-07-31_19h44.10.066,arm3_eps,2022.2.5,Win32,60.0240096,5f3d718e8de6ae12265b95ae,64c7fed44a04f777bb1e18ce,64c800ef4456ba0ffa8da6aa,right,1,0.75,0.2429,3,-0.008289702,1.016,18,0,18,0,1,,,,,,,,,,
,,937547,001,2023-07-31_19h44.10.066,arm3_eps,2022.2.5,Win32,60.0240096,5f3d718e8de6ae12265b95ae,64c7fed44a04f777bb1e18ce,64c800ef4456ba0ffa8da6aa,right,1,0.75,0.2429,3,0.001629739,0.892,19,0,19,0,1,,,,,,,,,,
,,937547,001,2023-07-31_19h44.10.066,arm3_eps,2022.2.5,Win32,60.0240096,5f3d718e8de6ae12265b95ae,64c7fed44a04f777bb1e18ce,64c800ef4456ba0ffa8da6aa,up,1,0.75,0.2429,4,0,0.733,20,0,20,0,1,,,,,,,,,,
,,937547,001,2023-07-31_19h44.10.066,arm3_eps,2022.2.5,Win32,60.0240096,5f3d718e8de6ae12265b95ae,64c7fed44a04f777bb1e18ce,64c800ef4456ba0ffa8da6aa,right,1,0.75,0.2429,4,0.016973274,1.074,21,0,21,0,1,,,,,,,,,,
,,937547,001,2023-07-31_19h44.10.066,arm3_eps,2022.2.5,Win32,60.0240096,5f3d718e8de6ae12265b95ae,64c7fed44a04f777bb1e18ce,64c800ef4456ba0ffa8da6aa,right,1,0.75,0.2429,4,0.042639112,0.618,22,0,22,0,1,,,,,,,,,,
,,937547,001,2023-07-31_19h44.10.066,arm3_eps,2022.2.5,Win32,60.0240096,5f3d718e8de6ae12265b95ae,64c7fed44a04f777bb1e18ce,64c800ef4456ba0ffa8da6aa,up,-1,0.75,0.2429,5,0,0.417,23,0,23,0,1,,,,,,,,,,
,,937547,001,2023-07-31_19h44.10.066,arm3_eps,2022.2.5,Win32,60.0240096,5f3d718e8de6ae12265b95ae,64c7fed44a04f777bb1e18ce,64c800ef4456ba0ffa8da6aa,right,-1,0.75,0.2429,5,0.001585225,1.231,24,0,24,0,1,,,,,,,,,,
,,937547,001,2023-07-31_19h44.10.066,arm3_eps,2022.2.5,Win32,60.0240096,5f3d718e8de6ae12265b95ae,64c7fed44a04f777bb1e18ce,64c800ef4456ba0ffa8da6aa,right,-1,0.75,0.2429,5,-0.01241777,0.834,25,0,25,0,1,,,,,,,,,,
,,937547,001,2023-07-31_19h44.10.066,arm3_eps,2022.2.5,Win32,60.0240096,5f3d718e8de6ae12265b95ae,64c7fed44a04f777bb1e18ce,64c800ef4456ba0ffa8da6aa,up,-1,0.75,0.2429,5,0,0.644,26,0,26,0,1,,,,,,,,,,
,,937547,001,2023-07-31_19h44.10.066,arm3_eps,2022.2.5,Win32,60.0240096,5f3d718e8de6ae12265b95ae,64c7fed44a04f777bb1e18ce,64c800ef4456ba0ffa8da6aa,right,-1,0.75,0.2429,5,-0.021997564,1.177,27,0,27,0,1,,,,,,,,,,
,,937547,001,2023-07-31_19h44.10.066,arm3_eps,2022.2.5,Win32,60.0240096,5f3d718e8de6ae12265b95ae,64c7fed44a04f777bb1e18ce,64c800ef4456ba0ffa8da6aa,right,-1,0.75,0.2429,5,-0.026431436,0.647,28,0,28,0,1,,,,,,,,,,
,,937547,001,2023-07-31_19h44.10.066,arm3_eps,2022.2.5,Win32,60.0240096,5f3d718e8de6ae12265b95ae,64c7fed44a04f777bb1e18ce,64c800ef4456ba0ffa8da6aa,down,-1,0.75,0.2429,6,0,0.447,29,0,29,0,1,,,,,,,,,,
,,937547,001,2023-07-31_19h44.10.066,arm3_eps,2022.2.5,Win32,60.0240096,5f3d718e8de6ae12265b95ae,64c7fed44a04f777bb1e18ce,64c800ef4456ba0ffa8da6aa,right,-1,0.75,0.2429,6,0.002185004,1.073,30,0,30,0,1,,,,,,,,,,
,,937547,001,2023-07-31_19h44.10.066,arm3_eps,2022.2.5,Win32,60.0240096,5f3d718e8de6ae12265b95ae,64c7fed44a04f777bb1e18ce,64c800ef4456ba0ffa8da6aa,right,-1,0.75,0.2429,6,-0.033987847,0.565,31,0,31,0,1,,,,,,,,,,
,,937547,001,2023-07-31_19h44.10.066,arm3_eps,2022.2.5,Win32,60.0240096,5f3d718e8de6ae12265b95ae,64c7fed44a04f777bb1e18ce,64c800ef4456ba0ffa8da6aa,down,-1,0.75,0.2429,7,0,0.615,32,0,32,0,1,,,,,,,,,,
,,937547,001,2023-07-31_19h44.10.066,arm3_eps,2022.2.5,Win32,60.0240096,5f3d718e8de6ae12265b95ae,64c7fed44a04f777bb1e18ce,64c800ef4456ba0ffa8da6aa,right,-1,0.75,0.2429,7,0.006466114,1.191,33,0,33,0,1,,,,,,,,,,
,,937547,001,2023-07-31_19h44.10.066,arm3_eps,2022.2.5,Win32,60.0240096,5f3d718e8de6ae12265b95ae,64c7fed44a04f777bb1e18ce,64c800ef4456ba0ffa8da6aa,right,-1,0.75,0.2429,7,-0.001233792,0.602,34,0,34,0,1,,,,,,,,,,
,,937547,001,2023-07-31_19h44.10.066,arm3_eps,2022.2.5,Win32,60.0240096,5f3d718e8de6ae12265b95ae,64c7fed44a04f777bb1e18ce,64c800ef4456ba0ffa8da6aa,right,-1,0.75,0.2429,7,0.00359983,1.317,35,0,35,0,1,,,,,,,,,,
,,937547,001,2023-07-31_19h44.10.066,arm3_eps,2022.2.5,Win32,60.0240096,5f3d718e8de6ae12265b95ae,64c7fed44a04f777bb1e18ce,64c800ef4456ba0ffa8da6aa,right,-1,0.75,0.2429,7,0.009248689,0.715,36,0,36,0,1,,,,,,,,,,
,,937547,001,2023-07-31_19h44.10.066,arm3_eps,2022.2.5,Win32,60.0240096,5f3d718e8de6ae12265b95ae,64c7fed44a04f777bb1e18ce,64c800ef4456ba0ffa8da6aa,up,-1,0.75,0.2429,6,0,0.54,37,0,37,0,1,,,,,,,,,,
,,937547,001,2023-07-31_19h44.10.066,arm3_eps,2022.2.5,Win32,60.0240096,5f3d718e8de6ae12265b95ae,64c7fed44a04f777bb1e18ce,64c800ef4456ba0ffa8da6aa,right,-1,0.75,0.2429,6,-0.023822949,1.088,38,0,38,0,1,,,,,,,,,,
,,937547,001,2023-07-31_19h44.10.066,arm3_eps,2022.2.5,Win32,60.0240096,5f3d718e8de6ae12265b95ae,64c7fed44a04f777bb1e18ce,64c800ef4456ba0ffa8da6aa,right,-1,0.75,0.2429,6,-0.01455505,0.597,39,0,39,0,1,,,,,,,,,,
,,937547,001,2023-07-31_19h44.10.066,arm3_eps,2022.2.5,Win32,60.0240096,5f3d718e8de6ae12265b95ae,64c7fed44a04f777bb1e18ce,64c800ef4456ba0ffa8da6aa,right,-1,0.75,0.2429,6,0.004286741,0.834,40,0,40,0,1,,,,,,,,,,
,,937547,001,2023-07-31_19h44.10.066,arm3_eps,2022.2.5,Win32,60.0240096,5f3d718e8de6ae12265b95ae,64c7fed44a04f777bb1e18ce,64c800ef4456ba0ffa8da6aa,down,1,0.75,0.2429,6,0,0.748,41,0,41,0,1,,,,,,,,,,
,,937547,001,2023-07-31_19h44.10.066,arm3_eps,2022.2.5,Win32,60.0240096,5f3d718e8de6ae12265b95ae,64c7fed44a04f777bb1e18ce,64c800ef4456ba0ffa8da6aa,right,1,0.75,0.2429,6,0.037028263,0.939,42,0,42,0,1,,,,,,,,,,
,,937547,001,2023-07-31_19h44.10.066,arm3_eps,2022.2.5,Win32,60.0240096,5f3d718e8de6ae12265b95ae,64c7fed44a04f777bb1e18ce,64c800ef4456ba0ffa8da6aa,right,1,0.75,0.2429,6,0.05202636,0.549,43,0,43,0,1,,,,,,,,,,
,,937547,001,2023-07-31_19h44.10.066,arm3_eps,2022.2.5,Win32,60.0240096,5f3d718e8de6ae12265b95ae,64c7fed44a04f777bb1e18ce,64c800ef4456ba0ffa8da6aa,up,1,0.75,0.2429,6,0,0.465,44,0,44,0,1,,,,,,,,,,
,,937547,001,2023-07-31_19h44.10.066,arm3_eps,2022.2.5,Win32,60.0240096,5f3d718e8de6ae12265b95ae,64c7fed44a04f777bb1e18ce,64c800ef4456ba0ffa8da6aa,right,1,0.75,0.2429,6,0.023651374,0.964,45,0,45,0,1,,,,,,,,,,
,,937547,001,2023-07-31_19h44.10.066,arm3_eps,2022.2.5,Win32,60.0240096,5f3d718e8de6ae12265b95ae,64c7fed44a04f777bb1e18ce,64c800ef4456ba0ffa8da6aa,right,1,0.75,0.2429,6,0.031760824,0.512,46,0,46,0,1,,,,,,,,,,
,,937547,001,2023-07-31_19h44.10.066,arm3_eps,2022.2.5,Win32,60.0240096,5f3d718e8de6ae12265b95ae,64c7fed44a04f777bb1e18ce,64c800ef4456ba0ffa8da6aa,up,1,0.75,0.2429,7,0,0.402,47,0,47,0,1,,,,,,,,,,
,,937547,001,2023-07-31_19h44.10.066,arm3_eps,2022.2.5,Win32,60.0240096,5f3d718e8de6ae12265b95ae,64c7fed44a04f777bb1e18ce,64c800ef4456ba0ffa8da6aa,right,1,0.75,0.2429,7,0.030404748,0.996,48,0,48,0,1,,,,,,,,,,
,,937547,001,2023-07-31_19h44.10.066,arm3_eps,2022.2.5,Win32,60.0240096,5f3d718e8de6ae12265b95ae,64c7fed44a04f777bb1e18ce,64c800ef4456ba0ffa8da6aa,right,1,0.75,0.2429,7,0.044674559,0.432,49,0,49,0,1,,,,,,,,,,
space,21.637,937547,001,2023-07-31_19h44.10.066,arm3_eps,2022.2.5,Win32,60.0240096,5f3d718e8de6ae12265b95ae,64c7fed44a04f777bb1e18ce,64c800ef4456ba0ffa8da6aa,,,,,,,,,,,,,,,,,,,,,,
space,14.578,937547,001,2023-07-31_19h44.10.066,arm3_eps,2022.2.5,Win32,60.0240096,5f3d718e8de6ae12265b95ae,64c7fed44a04f777bb1e18ce,64c800ef4456ba0ffa8da6aa,,,,,,,,,,,,,,,,,,,,,,
space,1.464,937547,001,2023-07-31_19h44.10.066,arm3_eps,2022.2.5,Win32,60.0240096,5f3d718e8de6ae12265b95ae,64c7fed44a04f777bb1e18ce,64c800ef4456ba0ffa8da6aa,,,,,,,,,,,,,,,,,,,,,,
,,937547,001,2023-07-31_19h44.10.066,arm3_eps,2022.2.5,Win32,60.0240096,5f3d718e8de6ae12265b95ae,64c7fed44a04f777bb1e18ce,64c800ef4456ba0ffa8da6aa,up,1,0.75,0.05,0,0,2.238,0,0,0,0,1,,,,,,,,,,
,,937547,001,2023-07-31_19h44.10.066,arm3_eps,2022.2.5,Win32,60.0240096,5f3d718e8de6ae12265b95ae,64c7fed44a04f777bb1e18ce,64c800ef4456ba0ffa8da6aa,right,1,0.75,0.05,0,0.011628213,2.186,1,0,1,0,1,,,,,,,,,,
,,937547,001,2023-07-31_19h44.10.066,arm3_eps,2022.2.5,Win32,60.0240096,5f3d718e8de6ae12265b95ae,64c7fed44a04f777bb1e18ce,64c800ef4456ba0ffa8da6aa,up,1,0.75,0.05,1,0,1.013,2,0,2,0,1,,,,,,,,,,
,,937547,001,2023-07-31_19h44.10.066,arm3_eps,2022.2.5,Win32,60.0240096,5f3d718e8de6ae12265b95ae,64c7fed44a04f777bb1e18ce,64c800ef4456ba0ffa8da6aa,right,1,0.75,0.05,1,0.012984346,2.007,3,0,3,0,1,,,,,,,,,,
,,937547,001,2023-07-31_19h44.10.066,arm3_eps,2022.2.5,Win32,60.0240096,5f3d718e8de6ae12265b95ae,64c7fed44a04f777bb1e18ce,64c800ef4456ba0ffa8da6aa,up,1,0.75,0.05,2,0,0.835,4,0,4,0,1,,,,,,,,,,
,,937547,001,2023-07-31_19h44.10.066,arm3_eps,2022.2.5,Win32,60.0240096,5f3d718e8de6ae12265b95ae,64c7fed44a04f777bb1e18ce,64c800ef4456ba0ffa8da6aa,right,1,0.75,0.05,2,0.01001664,1.145,5,0,5,0,1,,,,,,,,,,
,,937547,001,2023-07-31_19h44.10.066,arm3_eps,2022.2.5,Win32,60.0240096,5f3d718e8de6ae12265b95ae,64c7fed44a04f777bb1e18ce,64c800ef4456ba0ffa8da6aa,up,1,0.75,0.05,3,0,0.464,6,0,6,0,1,,,,,,,,,,
,,937547,001,2023-07-31_19h44.10.066,arm3_eps,2022.2.5,Win32,60.0240096,5f3d718e8de6ae12265b95ae,64c7fed44a04f777bb1e18ce,64c800ef4456ba0ffa8da6aa,right,1,0.75,0.05,3,0.025984612,0.907,7,0,7,0,1,,,,,,,,,,
,,937547,001,2023-07-31_19h44.10.066,arm3_eps,2022.2.5,Win32,60.0240096,5f3d718e8de6ae12265b95ae,64c7fed44a04f777bb1e18ce,64c800ef4456ba0ffa8da6aa,up,1,0.75,0.05,3,0,0.548,8,0,8,0,1,,,,,,,,,,
,,937547,001,2023-07-31_19h44.10.066,arm3_eps,2022.2.5,Win32,60.0240096,5f3d718e8de6ae12265b95ae,64c7fed44a04f777bb1e18ce,64c800ef4456ba0ffa8da6aa,right,1,0.75,0.05,3,0.015473757,0.916,9,0,9,0,1,,,,,,,,,,
,,937547,001,2023-07-31_19h44.10.066,arm3_eps,2022.2.5,Win32,60.0240096,5f3d718e8de6ae12265b95ae,64c7fed44a04f777bb1e18ce,64c800ef4456ba0ffa8da6aa,up,1,0.75,0.05,3,0,0.507,10,0,10,0,1,,,,,,,,,,
,,937547,001,2023-07-31_19h44.10.066,arm3_eps,2022.2.5,Win32,60.0240096,5f3d718e8de6ae12265b95ae,64c7fed44a04f777bb1e18ce,64c800ef4456ba0ffa8da6aa,right,1,0.75,0.05,3,-0.009077801,0.836,11,0,11,0,1,,,,,,,,,,
,,937547,001,2023-07-31_19h44.10.066,arm3_eps,2022.2.5,Win32,60.0240096,5f3d718e8de6ae12265b95ae,64c7fed44a04f777bb1e18ce,64c800ef4456ba0ffa8da6aa,up,1,0.75,0.05,4,0,0.818,12,0,12,0,1,,,,,,,,,,
,,937547,001,2023-07-31_19h44.10.066,arm3_eps,2022.2.5,Win32,60.0240096,5f3d718e8de6ae12265b95ae,64c7fed44a04f777bb1e18ce,64c800ef4456ba0ffa8da6aa,right,1,0.75,0.05,4,0.009057364,1.028,13,0,13,0,1,,,,,,,,,,
,,937547,001,2023-07-31_19h44.10.066,arm3_eps,2022.2.5,Win32,60.0240096,5f3d718e8de6ae12265b95ae,64c7fed44a04f777bb1e18ce,64c800ef4456ba0ffa8da6aa,up,1,0.75,0.05,5,0,0.585,14,0,14,0,1,,,,,,,,,,
,,937547,001,2023-07-31_19h44.10.066,arm3_eps,2022.2.5,Win32,60.0240096,5f3d718e8de6ae12265b95ae,64c7fed44a04f777bb1e18ce,64c800ef4456ba0ffa8da6aa,right,1,0.75,0.05,5,-0.040385752,1.548,15,0,15,0,1,,,,,,,,,,
,,937547,001,2023-07-31_19h44.10.066,arm3_eps,2022.2.5,Win32,60.0240096,5f3d718e8de6ae12265b95ae,64c7fed44a04f777bb1e18ce,64c800ef4456ba0ffa8da6aa,right,1,0.75,0.05,5,-0.028167856,0.9,16,0,16,0,1,,,,,,,,,,
,,937547,001,2023-07-31_19h44.10.066,arm3_eps,2022.2.5,Win32,60.0240096,5f3d718e8de6ae12265b95ae,64c7fed44a04f777bb1e18ce,64c800ef4456ba0ffa8da6aa,down,1,0.75,0.05,4,0,1.149,17,0,17,0,1,,,,,,,,,,
,,937547,001,2023-07-31_19h44.10.066,arm3_eps,2022.2.5,Win32,60.0240096,5f3d718e8de6ae12265b95ae,64c7fed44a04f777bb1e18ce,64c800ef4456ba0ffa8da6aa,right,1,0.75,0.05,4,-0.00467585,0.876,18,0,18,0,1,,,,,,,,,,
,,937547,001,2023-07-31_19h44.10.066,arm3_eps,2022.2.5,Win32,60.0240096,5f3d718e8de6ae12265b95ae,64c7fed44a04f777bb1e18ce,64c800ef4456ba0ffa8da6aa,up,1,0.75,0.05,4,0,0.848,19,0,19,0,1,,,,,,,,,,
,,937547,001,2023-07-31_19h44.10.066,arm3_eps,2022.2.5,Win32,60.0240096,5f3d718e8de6ae12265b95ae,64c7fed44a04f777bb1e18ce,64c800ef4456ba0ffa8da6aa,right,1,0.75,0.05,4,-0.012417326,0.813,20,0,20,0,1,,,,,,,,,,
,,937547,001,2023-07-31_19h44.10.066,arm3_eps,2022.2.5,Win32,60.0240096,5f3d718e8de6ae12265b95ae,64c7fed44a04f777bb1e18ce,64c800ef4456ba0ffa8da6aa,up,1,0.75,0.05,4,0,0.714,21,0,21,0,1,,,,,,,,,,
,,937547,001,2023-07-31_19h44.10.066,arm3_eps,2022.2.5,Win32,60.0240096,5f3d718e8de6ae12265b95ae,64c7fed44a04f777bb1e18ce,64c800ef4456ba0ffa8da6aa,right,1,0.75,0.05,4,0.023353227,0.808,22,0,22,0,1,,,,,,,,,,
,,937547,001,2023-07-31_19h44.10.066,arm3_eps,2022.2.5,Win32,60.0240096,5f3d718e8de6ae12265b95ae,64c7fed44a04f777bb1e18ce,64c800ef4456ba0ffa8da6aa,up,1,0.75,0.05,5,0,0.632,23,0,23,0,1,,,,,,,,,,
,,937547,001,2023-07-31_19h44.10.066,arm3_eps,2022.2.5,Win32,60.0240096,5f3d718e8de6ae12265b95ae,64c7fed44a04f777bb1e18ce,64c800ef4456ba0ffa8da6aa,right,1,0.75,0.05,5,0.009900119,0.797,24,0,24,0,1,,,,,,,,,,
,,937547,001,2023-07-31_19h44.10.066,arm3_eps,2022.2.5,Win32,60.0240096,5f3d718e8de6ae12265b95ae,64c7fed44a04f777bb1e18ce,64c800ef4456ba0ffa8da6aa,up,1,0.75,0.05,6,0,0.433,25,0,25,0,1,,,,,,,,,,
,,937547,001,2023-07-31_19h44.10.066,arm3_eps,2022.2.5,Win32,60.0240096,5f3d718e8de6ae12265b95ae,64c7fed44a04f777bb1e18ce,64c800ef4456ba0ffa8da6aa,right,1,0.75,0.05,6,0.043783402,0.664,26,0,26,0,1,,,,,,,,,,
,,937547,001,2023-07-31_19h44.10.066,arm3_eps,2022.2.5,Win32,60.0240096,5f3d718e8de6ae12265b95ae,64c7fed44a04f777bb1e18ce,64c800ef4456ba0ffa8da6aa,up,1,0.75,0.05,6,0,0.496,27,0,27,0,1,,,,,,,,,,
,,937547,001,2023-07-31_19h44.10.066,arm3_eps,2022.2.5,Win32,60.0240096,5f3d718e8de6ae12265b95ae,64c7fed44a04f777bb1e18ce,64c800ef4456ba0ffa8da6aa,right,1,0.75,0.05,6,0.023016003,1.005,28,0,28,0,1,,,,,,,,,,
,,937547,001,2023-07-31_19h44.10.066,arm3_eps,2022.2.5,Win32,60.0240096,5f3d718e8de6ae12265b95ae,64c7fed44a04f777bb1e18ce,64c800ef4456ba0ffa8da6aa,up,1,0.75,0.05,6,0,0.732,29,0,29,0,1,,,,,,,,,,
,,937547,001,2023-07-31_19h44.10.066,arm3_eps,2022.2.5,Win32,60.0240096,5f3d718e8de6ae12265b95ae,64c7fed44a04f777bb1e18ce,64c800ef4456ba0ffa8da6aa,right,1,0.75,0.05,6,-0.007004586,0.687,30,0,30,0,1,,,,,,,,,,
,,937547,001,2023-07-31_19h44.10.066,arm3_eps,2022.2.5,Win32,60.0240096,5f3d718e8de6ae12265b95ae,64c7fed44a04f777bb1e18ce,64c800ef4456ba0ffa8da6aa,down,1,0.75,0.05,5,0,0.935,31,0,31,0,1,,,,,,,,,,
,,937547,001,2023-07-31_19h44.10.066,arm3_eps,2022.2.5,Win32,60.0240096,5f3d718e8de6ae12265b95ae,64c7fed44a04f777bb1e18ce,64c800ef4456ba0ffa8da6aa,right,1,0.75,0.05,5,0.013092618,0.688,32,0,32,0,1,,,,,,,,,,
,,937547,001,2023-07-31_19h44.10.066,arm3_eps,2022.2.5,Win32,60.0240096,5f3d718e8de6ae12265b95ae,64c7fed44a04f777bb1e18ce,64c800ef4456ba0ffa8da6aa,up,1,0.75,0.05,6,0,0.449,33,0,33,0,1,,,,,,,,,,
,,937547,001,2023-07-31_19h44.10.066,arm3_eps,2022.2.5,Win32,60.0240096,5f3d718e8de6ae12265b95ae,64c7fed44a04f777bb1e18ce,64c800ef4456ba0ffa8da6aa,right,1,0.75,0.05,6,0.052138842,0.813,34,0,34,0,1,,,,,,,,,,
,,937547,001,2023-07-31_19h44.10.066,arm3_eps,2022.2.5,Win32,60.0240096,5f3d718e8de6ae12265b95ae,64c7fed44a04f777bb1e18ce,64c800ef4456ba0ffa8da6aa,up,1,0.75,0.05,7,0,0.465,35,0,35,0,1,,,,,,,,,,
,,937547,001,2023-07-31_19h44.10.066,arm3_eps,2022.2.5,Win32,60.0240096,5f3d718e8de6ae12265b95ae,64c7fed44a04f777bb1e18ce,64c800ef4456ba0ffa8da6aa,right,1,0.75,0.05,7,0.025687792,0.796,36,0,36,0,1,,,,,,,,,,
,,937547,001,2023-07-31_19h44.10.066,arm3_eps,2022.2.5,Win32,60.0240096,5f3d718e8de6ae12265b95ae,64c7fed44a04f777bb1e18ce,64c800ef4456ba0ffa8da6aa,up,1,0.75,0.05,7,0,0.449,37,0,37,0,1,,,,,,,,,,
,,937547,001,2023-07-31_19h44.10.066,arm3_eps,2022.2.5,Win32,60.0240096,5f3d718e8de6ae12265b95ae,64c7fed44a04f777bb1e18ce,64c800ef4456ba0ffa8da6aa,right,1,0.75,0.05,7,0.011613836,0.798,38,0,38,0,1,,,,,,,,,,
,,937547,001,2023-07-31_19h44.10.066,arm3_eps,2022.2.5,Win32,60.0240096,5f3d718e8de6ae12265b95ae,64c7fed44a04f777bb1e18ce,64c800ef4456ba0ffa8da6aa,up,1,0.75,0.05,7,0,0.419,39,0,39,0,1,,,,,,,,,,
,,937547,001,2023-07-31_19h44.10.066,arm3_eps,2022.2.5,Win32,60.0240096,5f3d718e8de6ae12265b95ae,64c7fed44a04f777bb1e18ce,64c800ef4456ba0ffa8da6aa,right,1,0.75,0.05,7,-0.00845816,0.946,40,0,40,0,1,,,,,,,,,,
,,937547,001,2023-07-31_19h44.10.066,arm3_eps,2022.2.5,Win32,60.0240096,5f3d718e8de6ae12265b95ae,64c7fed44a04f777bb1e18ce,64c800ef4456ba0ffa8da6aa,right,1,0.75,0.05,7,-0.020760943,1.065,41,0,41,0,1,,,,,,,,,,
,,937547,001,2023-07-31_19h44.10.066,arm3_eps,2022.2.5,Win32,60.0240096,5f3d718e8de6ae12265b95ae,64c7fed44a04f777bb1e18ce,64c800ef4456ba0ffa8da6aa,right,1,0.75,0.05,7,-0.011565919,0.931,42,0,42,0,1,,,,,,,,,,
,,937547,001,2023-07-31_19h44.10.066,arm3_eps,2022.2.5,Win32,60.0240096,5f3d718e8de6ae12265b95ae,64c7fed44a04f777bb1e18ce,64c800ef4456ba0ffa8da6aa,up,1,0.75,0.05,8,0,0.833,43,0,43,0,1,,,,,,,,,,
,,937547,001,2023-07-31_19h44.10.066,arm3_eps,2022.2.5,Win32,60.0240096,5f3d718e8de6ae12265b95ae,64c7fed44a04f777bb1e18ce,64c800ef4456ba0ffa8da6aa,right,1,0.75,0.05,8,-0.014019126,0.603,44,0,44,0,1,,,,,,,,,,
,,937547,001,2023-07-31_19h44.10.066,arm3_eps,2022.2.5,Win32,60.0240096,5f3d718e8de6ae12265b95ae,64c7fed44a04f777bb1e18ce,64c800ef4456ba0ffa8da6aa,up,1,0.75,0.05,8,0,0.663,45,0,45,0,1,,,,,,,,,,
,,937547,001,2023-07-31_19h44.10.066,arm3_eps,2022.2.5,Win32,60.0240096,5f3d718e8de6ae12265b95ae,64c7fed44a04f777bb1e18ce,64c800ef4456ba0ffa8da6aa,right,1,0.75,0.05,8,0.024728288,0.927,46,0,46,0,1,,,,,,,,,,
,,937547,001,2023-07-31_19h44.10.066,arm3_eps,2022.2.5,Win32,60.0240096,5f3d718e8de6ae12265b95ae,64c7fed44a04f777bb1e18ce,64c800ef4456ba0ffa8da6aa,up,-1,0.75,0.05,9,0,0.45,47,0,47,0,1,,,,,,,,,,
,,937547,001,2023-07-31_19h44.10.066,arm3_eps,2022.2.5,Win32,60.0240096,5f3d718e8de6ae12265b95ae,64c7fed44a04f777bb1e18ce,64c800ef4456ba0ffa8da6aa,right,-1,0.75,0.05,9,0.009194653,0.673,48,0,48,0,1,,,,,,,,,,
,,937547,001,2023-07-31_19h44.10.066,arm3_eps,2022.2.5,Win32,60.0240096,5f3d718e8de6ae12265b95ae,64c7fed44a04f777bb1e18ce,64c800ef4456ba0ffa8da6aa,up,-1,0.75,0.05,9,0.009194653,0.527,49,0,49,0,1,,,,,,,,,,
space,6.785,937547,001,2023-07-31_19h44.10.066,arm3_eps,2022.2.5,Win32,60.0240096,5f3d718e8de6ae12265b95ae,64c7fed44a04f777bb1e18ce,64c800ef4456ba0ffa8da6aa,,,,,,,,,,,,,,,,,,,,,,
space,0.783,937547,001,2023-07-31_19h44.10.066,arm3_eps,2022.2.5,Win32,60.0240096,5f3d718e8de6ae12265b95ae,64c7fed44a04f777bb1e18ce,64c800ef4456ba0ffa8da6aa,,,,,,,,,,,,,,,,,,,,,,
,,937547,001,2023-07-31_19h44.10.066,arm3_eps,2022.2.5,Win32,60.0240096,5f3d718e8de6ae12265b95ae,64c7fed44a04f777bb1e18ce,64c800ef4456ba0ffa8da6aa,up,-1,0.75,0.5,-1,0,1.331,0,0,0,0,1,,,,,,,,,,
,,937547,001,2023-07-31_19h44.10.066,arm3_eps,2022.2.5,Win32,60.0240096,5f3d718e8de6ae12265b95ae,64c7fed44a04f777bb1e18ce,64c800ef4456ba0ffa8da6aa,right,-1,0.75,0.5,-1,-0.004089351,1.227,1,0,1,0,1,,,,,,,,,,
,,937547,001,2023-07-31_19h44.10.066,arm3_eps,2022.2.5,Win32,60.0240096,5f3d718e8de6ae12265b95ae,64c7fed44a04f777bb1e18ce,64c800ef4456ba0ffa8da6aa,down,-1,0.75,0.5,0,0,0.769,2,0,2,0,1,,,,,,,,,,
,,937547,001,2023-07-31_19h44.10.066,arm3_eps,2022.2.5,Win32,60.0240096,5f3d718e8de6ae12265b95ae,64c7fed44a04f777bb1e18ce,64c800ef4456ba0ffa8da6aa,right,-1,0.75,0.5,0,-0.015883279,0.791,3,0,3,0,1,,,,,,,,,,
,,937547,001,2023-07-31_19h44.10.066,arm3_eps,2022.2.5,Win32,60.0240096,5f3d718e8de6ae12265b95ae,64c7fed44a04f777bb1e18ce,64c800ef4456ba0ffa8da6aa,down,1,0.75,0.5,1,0,0.483,4,0,4,0,1,,,,,,,,,,
,,937547,001,2023-07-31_19h44.10.066,arm3_eps,2022.2.5,Win32,60.0240096,5f3d718e8de6ae12265b95ae,64c7fed44a04f777bb1e18ce,64c800ef4456ba0ffa8da6aa,right,1,0.75,0.5,1,-0.007584954,0.877,5,0,5,0,1,,,,,,,,,,
,,937547,001,2023-07-31_19h44.10.066,arm3_eps,2022.2.5,Win32,60.0240096,5f3d718e8de6ae12265b95ae,64c7fed44a04f777bb1e18ce,64c800ef4456ba0ffa8da6aa,down,1,0.75,0.5,0,0,0.629,6,0,6,0,1,,,,,,,,,,
,,937547,001,2023-07-31_19h44.10.066,arm3_eps,2022.2.5,Win32,60.0240096,5f3d718e8de6ae12265b95ae,64c7fed44a04f777bb1e18ce,64c800ef4456ba0ffa8da6aa,right,1,0.75,0.5,0,0.024479161,0.865,7,0,7,0,1,,,,,,,,,,
,,937547,001,2023-07-31_19h44.10.066,arm3_eps,2022.2.5,Win32,60.0240096,5f3d718e8de6ae12265b95ae,64c7fed44a04f777bb1e18ce,64c800ef4456ba0ffa8da6aa,up,-1,0.75,0.5,1,0,0.498,8,0,8,0,1,,,,,,,,,,
,,937547,001,2023-07-31_19h44.10.066,arm3_eps,2022.2.5,Win32,60.0240096,5f3d718e8de6ae12265b95ae,64c7fed44a04f777bb1e18ce,64c800ef4456ba0ffa8da6aa,right,-1,0.75,0.5,1,0.029916524,0.915,9,0,9,0,1,,,,,,,,,,
,,937547,001,2023-07-31_19h44.10.066,arm3_eps,2022.2.5,Win32,60.0240096,5f3d718e8de6ae12265b95ae,64c7fed44a04f777bb1e18ce,64c800ef4456ba0ffa8da6aa,up,1,0.75,0.5,0,0,0.549,10,0,10,0,1,,,,,,,,,,
,,937547,001,2023-07-31_19h44.10.066,arm3_eps,2022.2.5,Win32,60.0240096,5f3d718e8de6ae12265b95ae,64c7fed44a04f777bb1e18ce,64c800ef4456ba0ffa8da6aa,right,1,0.75,0.5,0,0.01051448,0.828,11,0,11,0,1,,,,,,,,,,
,,937547,001,2023-07-31_19h44.10.066,arm3_eps,2022.2.5,Win32,60.0240096,5f3d718e8de6ae12265b95ae,64c7fed44a04f777bb1e18ce,64c800ef4456ba0ffa8da6aa,right,1,0.75,0.5,0,0.011960116,1.349,12,0,12,0,1,,,,,,,,,,
,,937547,001,2023-07-31_19h44.10.066,arm3_eps,2022.2.5,Win32,60.0240096,5f3d718e8de6ae12265b95ae,64c7fed44a04f777bb1e18ce,64c800ef4456ba0ffa8da6aa,up,1,0.75,0.5,0,0,0.848,13,0,13,0,1,,,,,,,,,,
,,937547,001,2023-07-31_19h44.10.066,arm3_eps,2022.2.5,Win32,60.0240096,5f3d718e8de6ae12265b95ae,64c7fed44a04f777bb1e18ce,64c800ef4456ba0ffa8da6aa,right,1,0.75,0.5,0,-0.013084679,0.824,14,0,14,0,1,,,,,,,,,,
,,937547,001,2023-07-31_19h44.10.066,arm3_eps,2022.2.5,Win32,60.0240096,5f3d718e8de6ae12265b95ae,64c7fed44a04f777bb1e18ce,64c800ef4456ba0ffa8da6aa,right,1,0.75,0.5,0,0.005881553,0.887,15,0,15,0,1,,,,,,,,,,
,,937547,001,2023-07-31_19h44.10.066,arm3_eps,2022.2.5,Win32,60.0240096,5f3d718e8de6ae12265b95ae,64c7fed44a04f777bb1e18ce,64c800ef4456ba0ffa8da6aa,up,-1,0.75,0.5,1,0,0.672,16,0,16,0,1,,,,,,,,,,
,,937547,001,2023-07-31_19h44.10.066,arm3_eps,2022.2.5,Win32,60.0240096,5f3d718e8de6ae12265b95ae,64c7fed44a04f777bb1e18ce,64c800ef4456ba0ffa8da6aa,right,-1,0.75,0.5,1,-0.008486578,0.9,17,0,17,0,1,,,,,,,,,,
,,937547,001,2023-07-31_19h44.10.066,arm3_eps,2022.2.5,Win32,60.0240096,5f3d718e8de6ae12265b95ae,64c7fed44a04f777bb1e18ce,64c800ef4456ba0ffa8da6aa,down,1,0.75,0.5,2,0,0.605,18,0,18,0,1,,,,,,,,,,
,,937547,001,2023-07-31_19h44.10.066,arm3_eps,2022.2.5,Win32,60.0240096,5f3d718e8de6ae12265b95ae,64c7fed44a04f777bb1e18ce,64c800ef4456ba0ffa8da6aa,right,1,0.75,0.5,2,0.031358441,0.673,19,0,19,0,1,,,,,,,,,,
,,937547,001,2023-07-31_19h44.10.066,arm3_eps,2022.2.5,Win32,60.0240096,5f3d718e8de6ae12265b95ae,64c7fed44a04f777bb1e18ce,64c800ef4456ba0ffa8da6aa,up,1,0.75,0.5,3,0,0.853,20,0,20,0,1,,,,,,,,,,
,,937547,001,2023-07-31_19h44.10.066,arm3_eps,2022.2.5,Win32,60.0240096,5f3d718e8de6ae12265b95ae,64c7fed44a04f777bb1e18ce,64c800ef4456ba0ffa8da6aa,right,1,0.75,0.5,3,0.021034886,0.898,21,0,21,0,1,,,,,,,,,,
,,937547,001,2023-07-31_19h44.10.066,arm3_eps,2022.2.5,Win32,60.0240096,5f3d718e8de6ae12265b95ae,64c7fed44a04f777bb1e18ce,64c800ef4456ba0ffa8da6aa,up,1,0.75,0.5,4,0,0.595,22,0,22,0,1,,,,,,,,,,
,,937547,001,2023-07-31_19h44.10.066,arm3_eps,2022.2.5,Win32,60.0240096,5f3d718e8de6ae12265b95ae,64c7fed44a04f777bb1e18ce,64c800ef4456ba0ffa8da6aa,right,1,0.75,0.5,4,0.026074954,1.406,23,0,23,0,1,,,,,,,,,,
,,937547,001,2023-07-31_19h44.10.066,arm3_eps,2022.2.5,Win32,60.0240096,5f3d718e8de6ae12265b95ae,64c7fed44a04f777bb1e18ce,64c800ef4456ba0ffa8da6aa,up,-1,0.75,0.5,4,0,0.428,24,0,24,0,1,,,,,,,,,,
,,937547,001,2023-07-31_19h44.10.066,arm3_eps,2022.2.5,Win32,60.0240096,5f3d718e8de6ae12265b95ae,64c7fed44a04f777bb1e18ce,64c800ef4456ba0ffa8da6aa,right,-1,0.75,0.5,4,0.019750637,1.17,25,0,25,0,1,,,,,,,,,,
,,937547,001,2023-07-31_19h44.10.066,arm3_eps,2022.2.5,Win32,60.0240096,5f3d718e8de6ae12265b95ae,64c7fed44a04f777bb1e18ce,64c800ef4456ba0ffa8da6aa,up,1,0.75,0.5,3,0,0.37,26,0,26,0,1,,,,,,,,,,
,,937547,001,2023-07-31_19h44.10.066,arm3_eps,2022.2.5,Win32,60.0240096,5f3d718e8de6ae12265b95ae,64c7fed44a04f777bb1e18ce,64c800ef4456ba0ffa8da6aa,right,1,0.75,0.5,3,0.009362063,0.771,27,0,27,0,1,,,,,,,,,,
,,937547,001,2023-07-31_19h44.10.066,arm3_eps,2022.2.5,Win32,60.0240096,5f3d718e8de6ae12265b95ae,64c7fed44a04f777bb1e18ce,64c800ef4456ba0ffa8da6aa,up,1,0.75,0.5,4,0,0.405,28,0,28,0,1,,,,,,,,,,
,,937547,001,2023-07-31_19h44.10.066,arm3_eps,2022.2.5,Win32,60.0240096,5f3d718e8de6ae12265b95ae,64c7fed44a04f777bb1e18ce,64c800ef4456ba0ffa8da6aa,right,1,0.75,0.5,4,0.009606495,0.994,29,0,29,0,1,,,,,,,,,,
,,937547,001,2023-07-31_19h44.10.066,arm3_eps,2022.2.5,Win32,60.0240096,5f3d718e8de6ae12265b95ae,64c7fed44a04f777bb1e18ce,64c800ef4456ba0ffa8da6aa,up,-1,0.75,0.5,4,0,0.426,30,0,30,0,1,,,,,,,,,,
,,937547,001,2023-07-31_19h44.10.066,arm3_eps,2022.2.5,Win32,60.0240096,5f3d718e8de6ae12265b95ae,64c7fed44a04f777bb1e18ce,64c800ef4456ba0ffa8da6aa,right,-1,0.75,0.5,4,-0.006323101,0.802,31,0,31,0,1,,,,,,,,,,
,,937547,001,2023-07-31_19h44.10.066,arm3_eps,2022.2.5,Win32,60.0240096,5f3d718e8de6ae12265b95ae,64c7fed44a04f777bb1e18ce,64c800ef4456ba0ffa8da6aa,down,1,0.75,0.5,5,0,0.612,32,0,32,0,1,,,,,,,,,,
,,937547,001,2023-07-31_19h44.10.066,arm3_eps,2022.2.5,Win32,60.0240096,5f3d718e8de6ae12265b95ae,64c7fed44a04f777bb1e18ce,64c800ef4456ba0ffa8da6aa,right,1,0.75,0.5,5,0.025456088,0.774,33,0,33,0,1,,,,,,,,,,
,,937547,001,2023-07-31_19h44.10.066,arm3_eps,2022.2.5,Win32,60.0240096,5f3d718e8de6ae12265b95ae,64c7fed44a04f777bb1e18ce,64c800ef4456ba0ffa8da6aa,up,-1,0.75,0.5,5,0,0.513,34,0,34,0,1,,,,,,,,,,
,,937547,001,2023-07-31_19h44.10.066,arm3_eps,2022.2.5,Win32,60.0240096,5f3d718e8de6ae12265b95ae,64c7fed44a04f777bb1e18ce,64c800ef4456ba0ffa8da6aa,right,-1,0.75,0.5,5,-0.029381201,0.87,35,0,35,0,1,,,,,,,,,,
,,937547,001,2023-07-31_19h44.10.066,arm3_eps,2022.2.5,Win32,60.0240096,5f3d718e8de6ae12265b95ae,64c7fed44a04f777bb1e18ce,64c800ef4456ba0ffa8da6aa,down,-1,0.75,0.5,5,0,0.467,36,0,36,0,1,,,,,,,,,,
,,937547,001,2023-07-31_19h44.10.066,arm3_eps,2022.2.5,Win32,60.0240096,5f3d718e8de6ae12265b95ae,64c7fed44a04f777bb1e18ce,64c800ef4456ba0ffa8da6aa,right,-1,0.75,0.5,5,0.000581762,0.816,37,0,37,0,1,,,,,,,,,,
,,937547,001,2023-07-31_19h44.10.066,arm3_eps,2022.2.5,Win32,60.0240096,5f3d718e8de6ae12265b95ae,64c7fed44a04f777bb1e18ce,64c800ef4456ba0ffa8da6aa,down,1,0.75,0.5,5,0,0.842,38,0,38,0,1,,,,,,,,,,
,,937547,001,2023-07-31_19h44.10.066,arm3_eps,2022.2.5,Win32,60.0240096,5f3d718e8de6ae12265b95ae,64c7fed44a04f777bb1e18ce,64c800ef4456ba0ffa8da6aa,right,1,0.75,0.5,5,-0.000280266,0.744,39,0,39,0,1,,,,,,,,,,
,,937547,001,2023-07-31_19h44.10.066,arm3_eps,2022.2.5,Win32,60.0240096,5f3d718e8de6ae12265b95ae,64c7fed44a04f777bb1e18ce,64c800ef4456ba0ffa8da6aa,up,1,0.75,0.5,6,0,0.573,40,0,40,0,1,,,,,,,,,,
,,937547,001,2023-07-31_19h44.10.066,arm3_eps,2022.2.5,Win32,60.0240096,5f3d718e8de6ae12265b95ae,64c7fed44a04f777bb1e18ce,64c800ef4456ba0ffa8da6aa,right,1,0.75,0.5,6,0.018562498,0.998,41,0,41,0,1,,,,,,,,,,
,,937547,001,2023-07-31_19h44.10.066,arm3_eps,2022.2.5,Win32,60.0240096,5f3d718e8de6ae12265b95ae,64c7fed44a04f777bb1e18ce,64c800ef4456ba0ffa8da6aa,up,1,0.75,0.5,7,0,0.398,42,0,42,0,1,,,,,,,,,,
,,937547,001,2023-07-31_19h44.10.066,arm3_eps,2022.2.5,Win32,60.0240096,5f3d718e8de6ae12265b95ae,64c7fed44a04f777bb1e18ce,64c800ef4456ba0ffa8da6aa,right,1,0.75,0.5,7,0.003615691,0.967,43,0,43,0,1,,,,,,,,,,
,,937547,001,2023-07-31_19h44.10.066,arm3_eps,2022.2.5,Win32,60.0240096,5f3d718e8de6ae12265b95ae,64c7fed44a04f777bb1e18ce,64c800ef4456ba0ffa8da6aa,right,1,0.75,0.5,7,0.015007562,0.863,44,0,44,0,1,,,,,,,,,,
,,937547,001,2023-07-31_19h44.10.066,arm3_eps,2022.2.5,Win32,60.0240096,5f3d718e8de6ae12265b95ae,64c7fed44a04f777bb1e18ce,64c800ef4456ba0ffa8da6aa,up,1,0.75,0.5,8,0,0.565,45,0,45,0,1,,,,,,,,,,
,,937547,001,2023-07-31_19h44.10.066,arm3_eps,2022.2.5,Win32,60.0240096,5f3d718e8de6ae12265b95ae,64c7fed44a04f777bb1e18ce,64c800ef4456ba0ffa8da6aa,right,1,0.75,0.5,8,0.043274911,0.764,46,0,46,0,1,,,,,,,,,,
,,937547,001,2023-07-31_19h44.10.066,arm3_eps,2022.2.5,Win32,60.0240096,5f3d718e8de6ae12265b95ae,64c7fed44a04f777bb1e18ce,64c800ef4456ba0ffa8da6aa,up,-1,0.75,0.5,9,0,0.466,47,0,47,0,1,,,,,,,,,,
,,937547,001,2023-07-31_19h44.10.066,arm3_eps,2022.2.5,Win32,60.0240096,5f3d718e8de6ae12265b95ae,64c7fed44a04f777bb1e18ce,64c800ef4456ba0ffa8da6aa,right,-1,0.75,0.5,9,0.008228746,0.753,48,0,48,0,1,,,,,,,,,,
,,937547,001,2023-07-31_19h44.10.066,arm3_eps,2022.2.5,Win32,60.0240096,5f3d718e8de6ae12265b95ae,64c7fed44a04f777bb1e18ce,64c800ef4456ba0ffa8da6aa,up,-1,0.75,0.5,9,0.008228746,0.468,49,0,49,0,1,,,,,,,,,,
space,2.66,937547,001,2023-07-31_19h44.10.066,arm3_eps,2022.2.5,Win32,60.0240096,5f3d718e8de6ae12265b95ae,64c7fed44a04f777bb1e18ce,64c800ef4456ba0ffa8da6aa,,,,,,,,,,,,,,,,,,,,,,
space,3.92,937547,001,2023-07-31_19h44.10.066,arm3_eps,2022.2.5,Win32,60.0240096,5f3d718e8de6ae12265b95ae,64c7fed44a04f777bb1e18ce,64c800ef4456ba0ffa8da6aa,right,-1,0.75,0.1786,0,-0.035392042,1.436,,,,,,0,0,0,0,1,,,,,
,,937547,001,2023-07-31_19h44.10.066,arm3_eps,2022.2.5,Win32,60.0240096,5f3d718e8de6ae12265b95ae,64c7fed44a04f777bb1e18ce,64c800ef4456ba0ffa8da6aa,up,-1,0.75,0.1786,-1,0,0.566,,,,,,1,0,1,0,1,,,,,
,,937547,001,2023-07-31_19h44.10.066,arm3_eps,2022.2.5,Win32,60.0240096,5f3d718e8de6ae12265b95ae,64c7fed44a04f777bb1e18ce,64c800ef4456ba0ffa8da6aa,right,-1,0.75,0.1786,-1,-0.001969702,1.063,,,,,,2,0,2,0,1,,,,,
,,937547,001,2023-07-31_19h44.10.066,arm3_eps,2022.2.5,Win32,60.0240096,5f3d718e8de6ae12265b95ae,64c7fed44a04f777bb1e18ce,64c800ef4456ba0ffa8da6aa,down,-1,0.75,0.1786,0,0,0.746,,,,,,3,0,3,0,1,,,,,
,,937547,001,2023-07-31_19h44.10.066,arm3_eps,2022.2.5,Win32,60.0240096,5f3d718e8de6ae12265b95ae,64c7fed44a04f777bb1e18ce,64c800ef4456ba0ffa8da6aa,right,-1,0.75,0.1786,0,-0.019663461,0.815,,,,,,4,0,4,0,1,,,,,
,,937547,001,2023-07-31_19h44.10.066,arm3_eps,2022.2.5,Win32,60.0240096,5f3d718e8de6ae12265b95ae,64c7fed44a04f777bb1e18ce,64c800ef4456ba0ffa8da6aa,down,-1,0.75,0.1786,0,0,0.766,,,,,,5,0,5,0,1,,,,,
,,937547,001,2023-07-31_19h44.10.066,arm3_eps,2022.2.5,Win32,60.0240096,5f3d718e8de6ae12265b95ae,64c7fed44a04f777bb1e18ce,64c800ef4456ba0ffa8da6aa,right,-1,0.75,0.1786,0,-0.016687695,0.833,,,,,,6,0,6,0,1,,,,,
,,937547,001,2023-07-31_19h44.10.066,arm3_eps,2022.2.5,Win32,60.0240096,5f3d718e8de6ae12265b95ae,64c7fed44a04f777bb1e18ce,64c800ef4456ba0ffa8da6aa,down,-1,0.75,0.1786,0,0,0.598,,,,,,7,0,7,0,1,,,,,
,,937547,001,2023-07-31_19h44.10.066,arm3_eps,2022.2.5,Win32,60.0240096,5f3d718e8de6ae12265b95ae,64c7fed44a04f777bb1e18ce,64c800ef4456ba0ffa8da6aa,right,-1,0.75,0.1786,0,-0.018414493,0.848,,,,,,8,0,8,0,1,,,,,
,,937547,001,2023-07-31_19h44.10.066,arm3_eps,2022.2.5,Win32,60.0240096,5f3d718e8de6ae12265b95ae,64c7fed44a04f777bb1e18ce,64c800ef4456ba0ffa8da6aa,down,-1,0.75,0.1786,1,0,0.765,,,,,,9,0,9,0,1,,,,,
,,937547,001,2023-07-31_19h44.10.066,arm3_eps,2022.2.5,Win32,60.0240096,5f3d718e8de6ae12265b95ae,64c7fed44a04f777bb1e18ce,64c800ef4456ba0ffa8da6aa,right,-1,0.75,0.1786,1,0.026615634,0.82,,,,,,10,0,10,0,1,,,,,
,,937547,001,2023-07-31_19h44.10.066,arm3_eps,2022.2.5,Win32,60.0240096,5f3d718e8de6ae12265b95ae,64c7fed44a04f777bb1e18ce,64c800ef4456ba0ffa8da6aa,right,-1,0.75,0.1786,1,0.010609718,0.978,,,,,,11,0,11,0,1,,,,,
,,937547,001,2023-07-31_19h44.10.066,arm3_eps,2022.2.5,Win32,60.0240096,5f3d718e8de6ae12265b95ae,64c7fed44a04f777bb1e18ce,64c800ef4456ba0ffa8da6aa,down,-1,0.75,0.1786,1,0,0.971,,,,,,12,0,12,0,1,,,,,
,,937547,001,2023-07-31_19h44.10.066,arm3_eps,2022.2.5,Win32,60.0240096,5f3d718e8de6ae12265b95ae,64c7fed44a04f777bb1e18ce,64c800ef4456ba0ffa8da6aa,right,-1,0.75,0.1786,1,-0.004832532,0.765,,,,,,13,0,13,0,1,,,,,
,,937547,001,2023-07-31_19h44.10.066,arm3_eps,2022.2.5,Win32,60.0240096,5f3d718e8de6ae12265b95ae,64c7fed44a04f777bb1e18ce,64c800ef4456ba0ffa8da6aa,right,-1,0.75,0.1786,1,-0.002049491,0.882,,,,,,14,0,14,0,1,,,,,
,,937547,001,2023-07-31_19h44.10.066,arm3_eps,2022.2.5,Win32,60.0240096,5f3d718e8de6ae12265b95ae,64c7fed44a04f777bb1e18ce,64c800ef4456ba0ffa8da6aa,up,-1,0.75,0.1786,0,0,0.7,,,,,,15,0,15,0,1,,,,,
,,937547,001,2023-07-31_19h44.10.066,arm3_eps,2022.2.5,Win32,60.0240096,5f3d718e8de6ae12265b95ae,64c7fed44a04f777bb1e18ce,64c800ef4456ba0ffa8da6aa,right,-1,0.75,0.1786,0,-0.008877536,0.802,,,,,,16,0,16,0,1,,,,,
,,937547,001,2023-07-31_19h44.10.066,arm3_eps,2022.2.5,Win32,60.0240096,5f3d718e8de6ae12265b95ae,64c7fed44a04f777bb1e18ce,64c800ef4456ba0ffa8da6aa,down,-1,0.75,0.1786,1,0,0.615,,,,,,17,0,17,0,1,,,,,
,,937547,001,2023-07-31_19h44.10.066,arm3_eps,2022.2.5,Win32,60.0240096,5f3d718e8de6ae12265b95ae,64c7fed44a04f777bb1e18ce,64c800ef4456ba0ffa8da6aa,right,-1,0.75,0.1786,1,-0.014855204,0.847,,,,,,18,0,18,0,1,,,,,
,,937547,001,2023-07-31_19h44.10.066,arm3_eps,2022.2.5,Win32,60.0240096,5f3d718e8de6ae12265b95ae,64c7fed44a04f777bb1e18ce,64c800ef4456ba0ffa8da6aa,right,-1,0.75,0.1786,1,0.01041251,0.883,,,,,,19,0,19,0,1,,,,,
,,937547,001,2023-07-31_19h44.10.066,arm3_eps,2022.2.5,Win32,60.0240096,5f3d718e8de6ae12265b95ae,64c7fed44a04f777bb1e18ce,64c800ef4456ba0ffa8da6aa,right,-1,0.75,0.1786,1,0.008168666,1.364,,,,,,20,0,20,0,1,,,,,
,,937547,001,2023-07-31_19h44.10.066,arm3_eps,2022.2.5,Win32,60.0240096,5f3d718e8de6ae12265b95ae,64c7fed44a04f777bb1e18ce,64c800ef4456ba0ffa8da6aa,down,-1,0.75,0.1786,1,0,0.663,,,,,,21,0,21,0,1,,,,,
,,937547,001,2023-07-31_19h44.10.066,arm3_eps,2022.2.5,Win32,60.0240096,5f3d718e8de6ae12265b95ae,64c7fed44a04f777bb1e18ce,64c800ef4456ba0ffa8da6aa,right,-1,0.75,0.1786,1,-0.005609408,0.812,,,,,,22,0,22,0,1,,,,,
,,937547,001,2023-07-31_19h44.10.066,arm3_eps,2022.2.5,Win32,60.0240096,5f3d718e8de6ae12265b95ae,64c7fed44a04f777bb1e18ce,64c800ef4456ba0ffa8da6aa,right,-1,0.75,0.1786,1,-0.011072104,1.067,,,,,,23,0,23,0,1,,,,,
,,937547,001,2023-07-31_19h44.10.066,arm3_eps,2022.2.5,Win32,60.0240096,5f3d718e8de6ae12265b95ae,64c7fed44a04f777bb1e18ce,64c800ef4456ba0ffa8da6aa,down,-1,0.75,0.1786,2,0,1.083,,,,,,24,0,24,0,1,,,,,
,,937547,001,2023-07-31_19h44.10.066,arm3_eps,2022.2.5,Win32,60.0240096,5f3d718e8de6ae12265b95ae,64c7fed44a04f777bb1e18ce,64c800ef4456ba0ffa8da6aa,right,-1,0.75,0.1786,2,0.019052182,0.76,,,,,,25,0,25,0,1,,,,,
,,937547,001,2023-07-31_19h44.10.066,arm3_eps,2022.2.5,Win32,60.0240096,5f3d718e8de6ae12265b95ae,64c7fed44a04f777bb1e18ce,64c800ef4456ba0ffa8da6aa,up,-1,0.75,0.1786,1,0,1.072,,,,,,26,0,26,0,1,,,,,
,,937547,001,2023-07-31_19h44.10.066,arm3_eps,2022.2.5,Win32,60.0240096,5f3d718e8de6ae12265b95ae,64c7fed44a04f777bb1e18ce,64c800ef4456ba0ffa8da6aa,right,-1,0.75,0.1786,1,-0.01800618,1.08,,,,,,27,0,27,0,1,,,,,
,,937547,001,2023-07-31_19h44.10.066,arm3_eps,2022.2.5,Win32,60.0240096,5f3d718e8de6ae12265b95ae,64c7fed44a04f777bb1e18ce,64c800ef4456ba0ffa8da6aa,down,-1,0.75,0.1786,2,0,0.515,,,,,,28,0,28,0,1,,,,,
,,937547,001,2023-07-31_19h44.10.066,arm3_eps,2022.2.5,Win32,60.0240096,5f3d718e8de6ae12265b95ae,64c7fed44a04f777bb1e18ce,64c800ef4456ba0ffa8da6aa,right,-1,0.75,0.1786,2,-0.026730215,1.013,,,,,,29,0,29,0,1,,,,,
,,937547,001,2023-07-31_19h44.10.066,arm3_eps,2022.2.5,Win32,60.0240096,5f3d718e8de6ae12265b95ae,64c7fed44a04f777bb1e18ce,64c800ef4456ba0ffa8da6aa,right,-1,0.75,0.1786,2,-0.015042772,0.916,,,,,,30,0,30,0,1,,,,,
,,937547,001,2023-07-31_19h44.10.066,arm3_eps,2022.2.5,Win32,60.0240096,5f3d718e8de6ae12265b95ae,64c7fed44a04f777bb1e18ce,64c800ef4456ba0ffa8da6aa,down,1,0.75,0.1786,3,0,0.682,,,,,,31,0,31,0,1,,,,,
,,937547,001,2023-07-31_19h44.10.066,arm3_eps,2022.2.5,Win32,60.0240096,5f3d718e8de6ae12265b95ae,64c7fed44a04f777bb1e18ce,64c800ef4456ba0ffa8da6aa,right,1,0.75,0.1786,3,-0.008591575,1.493,,,,,,32,0,32,0,1,,,,,
,,937547,001,2023-07-31_19h44.10.066,arm3_eps,2022.2.5,Win32,60.0240096,5f3d718e8de6ae12265b95ae,64c7fed44a04f777bb1e18ce,64c800ef4456ba0ffa8da6aa,down,1,0.75,0.1786,2,0,0.715,,,,,,33,0,33,0,1,,,,,
,,937547,001,2023-07-31_19h44.10.066,arm3_eps,2022.2.5,Win32,60.0240096,5f3d718e8de6ae12265b95ae,64c7fed44a04f777bb1e18ce,64c800ef4456ba0ffa8da6aa,right,1,0.75,0.1786,2,-0.003029397,0.74,,,,,,34,0,34,0,1,,,,,
,,937547,001,2023-07-31_19h44.10.066,arm3_eps,2022.2.5,Win32,60.0240096,5f3d718e8de6ae12265b95ae,64c7fed44a04f777bb1e18ce,64c800ef4456ba0ffa8da6aa,right,1,0.75,0.1786,2,0.011928443,0.966,,,,,,35,0,35,0,1,,,,,
,,937547,001,2023-07-31_19h44.10.066,arm3_eps,2022.2.5,Win32,60.0240096,5f3d718e8de6ae12265b95ae,64c7fed44a04f777bb1e18ce,64c800ef4456ba0ffa8da6aa,up,1,0.75,0.1786,3,0,0.415,,,,,,36,0,36,0,1,,,,,
,,937547,001,2023-07-31_19h44.10.066,arm3_eps,2022.2.5,Win32,60.0240096,5f3d718e8de6ae12265b95ae,64c7fed44a04f777bb1e18ce,64c800ef4456ba0ffa8da6aa,right,1,0.75,0.1786,3,0.012876576,1.161,,,,,,37,0,37,0,1,,,,,
,,937547,001,2023-07-31_19h44.10.066,arm3_eps,2022.2.5,Win32,60.0240096,5f3d718e8de6ae12265b95ae,64c7fed44a04f777bb1e18ce,64c800ef4456ba0ffa8da6aa,right,1,0.75,0.1786,3,0.050309587,1.094,,,,,,38,0,38,0,1,,,,,
,,937547,001,2023-07-31_19h44.10.066,arm3_eps,2022.2.5,Win32,60.0240096,5f3d718e8de6ae12265b95ae,64c7fed44a04f777bb1e18ce,64c800ef4456ba0ffa8da6aa,up,1,0.75,0.1786,4,0,0.449,,,,,,39,0,39,0,1,,,,,
,,937547,001,2023-07-31_19h44.10.066,arm3_eps,2022.2.5,Win32,60.0240096,5f3d718e8de6ae12265b95ae,64c7fed44a04f777bb1e18ce,64c800ef4456ba0ffa8da6aa,right,1,0.75,0.1786,4,0.025678051,1.112,,,,,,40,0,40,0,1,,,,,
,,937547,001,2023-07-31_19h44.10.066,arm3_eps,2022.2.5,Win32,60.0240096,5f3d718e8de6ae12265b95ae,64c7fed44a04f777bb1e18ce,64c800ef4456ba0ffa8da6aa,right,1,0.75,0.1786,4,0.05545238,0.998,,,,,,41,0,41,0,1,,,,,
,,937547,001,2023-07-31_19h44.10.066,arm3_eps,2022.2.5,Win32,60.0240096,5f3d718e8de6ae12265b95ae,64c7fed44a04f777bb1e18ce,64c800ef4456ba0ffa8da6aa,up,1,0.75,0.1786,4,0,0.413,,,,,,42,0,42,0,1,,,,,
,,937547,001,2023-07-31_19h44.10.066,arm3_eps,2022.2.5,Win32,60.0240096,5f3d718e8de6ae12265b95ae,64c7fed44a04f777bb1e18ce,64c800ef4456ba0ffa8da6aa,right,1,0.75,0.1786,4,0.008501951,0.846,,,,,,43,0,43,0,1,,,,,
,,937547,001,2023-07-31_19h44.10.066,arm3_eps,2022.2.5,Win32,60.0240096,5f3d718e8de6ae12265b95ae,64c7fed44a04f777bb1e18ce,64c800ef4456ba0ffa8da6aa,right,1,0.75,0.1786,4,0.037134621,0.806,,,,,,44,0,44,0,1,,,,,
,,937547,001,2023-07-31_19h44.10.066,arm3_eps,2022.2.5,Win32,60.0240096,5f3d718e8de6ae12265b95ae,64c7fed44a04f777bb1e18ce,64c800ef4456ba0ffa8da6aa,up,1,0.75,0.1786,5,0,0.481,,,,,,45,0,45,0,1,,,,,
,,937547,001,2023-07-31_19h44.10.066,arm3_eps,2022.2.5,Win32,60.0240096,5f3d718e8de6ae12265b95ae,64c7fed44a04f777bb1e18ce,64c800ef4456ba0ffa8da6aa,right,1,0.75,0.1786,5,0.026520976,1.099,,,,,,46,0,46,0,1,,,,,
,,937547,001,2023-07-31_19h44.10.066,arm3_eps,2022.2.5,Win32,60.0240096,5f3d718e8de6ae12265b95ae,64c7fed44a04f777bb1e18ce,64c800ef4456ba0ffa8da6aa,right,1,0.75,0.1786,5,0.049747153,0.794,,,,,,47,0,47,0,1,,,,,
,,937547,001,2023-07-31_19h44.10.066,arm3_eps,2022.2.5,Win32,60.0240096,5f3d718e8de6ae12265b95ae,64c7fed44a04f777bb1e18ce,64c800ef4456ba0ffa8da6aa,up,1,0.75,0.1786,6,0,0.432,,,,,,48,0,48,0,1,,,,,
,,937547,001,2023-07-31_19h44.10.066,arm3_eps,2022.2.5,Win32,60.0240096,5f3d718e8de6ae12265b95ae,64c7fed44a04f777bb1e18ce,64c800ef4456ba0ffa8da6aa,right,1,0.75,0.1786,6,0.014475073,0.854,,,,,,49,0,49,0,1,,,,,
,,937547,001,2023-07-31_19h44.10.066,arm3_eps,2022.2.5,Win32,60.0240096,5f3d718e8de6ae12265b95ae,64c7fed44a04f777bb1e18ce,64c800ef4456ba0ffa8da6aa,right,1,0.75,0.1786,6,0.034947135,0.416,,,,,,50,0,50,0,1,,,,,
,,937547,001,2023-07-31_19h44.10.066,arm3_eps,2022.2.5,Win32,60.0240096,5f3d718e8de6ae12265b95ae,64c7fed44a04f777bb1e18ce,64c800ef4456ba0ffa8da6aa,up,1,0.75,0.1786,7,0,0.297,,,,,,51,0,51,0,1,,,,,
,,937547,001,2023-07-31_19h44.10.066,arm3_eps,2022.2.5,Win32,60.0240096,5f3d718e8de6ae12265b95ae,64c7fed44a04f777bb1e18ce,64c800ef4456ba0ffa8da6aa,right,1,0.75,0.1786,7,0.021111247,0.762,,,,,,52,0,52,0,1,,,,,
,,937547,001,2023-07-31_19h44.10.066,arm3_eps,2022.2.5,Win32,60.0240096,5f3d718e8de6ae12265b95ae,64c7fed44a04f777bb1e18ce,64c800ef4456ba0ffa8da6aa,right,1,0.75,0.1786,7,0.01806032,0.748,,,,,,53,0,53,0,1,,,,,
,,937547,001,2023-07-31_19h44.10.066,arm3_eps,2022.2.5,Win32,60.0240096,5f3d718e8de6ae12265b95ae,64c7fed44a04f777bb1e18ce,64c800ef4456ba0ffa8da6aa,up,-1,0.75,0.1786,8,0,0.496,,,,,,54,0,54,0,1,,,,,
,,937547,001,2023-07-31_19h44.10.066,arm3_eps,2022.2.5,Win32,60.0240096,5f3d718e8de6ae12265b95ae,64c7fed44a04f777bb1e18ce,64c800ef4456ba0ffa8da6aa,right,-1,0.75,0.1786,8,0.012651633,0.846,,,,,,55,0,55,0,1,,,,,
,,937547,001,2023-07-31_19h44.10.066,arm3_eps,2022.2.5,Win32,60.0240096,5f3d718e8de6ae12265b95ae,64c7fed44a04f777bb1e18ce,64c800ef4456ba0ffa8da6aa,right,-1,0.75,0.1786,8,-0.001444502,0.983,,,,,,56,0,56,0,1,,,,,
,,937547,001,2023-07-31_19h44.10.066,arm3_eps,2022.2.5,Win32,60.0240096,5f3d718e8de6ae12265b95ae,64c7fed44a04f777bb1e18ce,64c800ef4456ba0ffa8da6aa,right,-1,0.75,0.1786,8,0.00787283,1.129,,,,,,57,0,57,0,1,,,,,
,,937547,001,2023-07-31_19h44.10.066,arm3_eps,2022.2.5,Win32,60.0240096,5f3d718e8de6ae12265b95ae,64c7fed44a04f777bb1e18ce,64c800ef4456ba0ffa8da6aa,up,-1,0.75,0.1786,7,0,0.447,,,,,,58,0,58,0,1,,,,,
,,937547,001,2023-07-31_19h44.10.066,arm3_eps,2022.2.5,Win32,60.0240096,5f3d718e8de6ae12265b95ae,64c7fed44a04f777bb1e18ce,64c800ef4456ba0ffa8da6aa,right,-1,0.75,0.1786,7,0.02022313,0.824,,,,,,59,0,59,0,1,,,,,
,,937547,001,2023-07-31_19h44.10.066,arm3_eps,2022.2.5,Win32,60.0240096,5f3d718e8de6ae12265b95ae,64c7fed44a04f777bb1e18ce,64c800ef4456ba0ffa8da6aa,right,-1,0.75,0.1786,7,0.003270457,0.799,,,,,,60,0,60,0,1,,,,,
,,937547,001,2023-07-31_19h44.10.066,arm3_eps,2022.2.5,Win32,60.0240096,5f3d718e8de6ae12265b95ae,64c7fed44a04f777bb1e18ce,64c800ef4456ba0ffa8da6aa,down,-1,0.75,0.1786,8,0,0.898,,,,,,61,0,61,0,1,,,,,
,,937547,001,2023-07-31_19h44.10.066,arm3_eps,2022.2.5,Win32,60.0240096,5f3d718e8de6ae12265b95ae,64c7fed44a04f777bb1e18ce,64c800ef4456ba0ffa8da6aa,right,-1,0.75,0.1786,8,0.006899912,1.04,,,,,,62,0,62,0,1,,,,,
,,937547,001,2023-07-31_19h44.10.066,arm3_eps,2022.2.5,Win32,60.0240096,5f3d718e8de6ae12265b95ae,64c7fed44a04f777bb1e18ce,64c800ef4456ba0ffa8da6aa,right,-1,0.75,0.1786,8,0.018090559,0.883,,,,,,63,0,63,0,1,,,,,
,,937547,001,2023-07-31_19h44.10.066,arm3_eps,2022.2.5,Win32,60.0240096,5f3d718e8de6ae12265b95ae,64c7fed44a04f777bb1e18ce,64c800ef4456ba0ffa8da6aa,right,-1,0.75,0.1786,8,0.004387914,1.247,,,,,,64,0,64,0,1,,,,,
,,937547,001,2023-07-31_19h44.10.066,arm3_eps,2022.2.5,Win32,60.0240096,5f3d718e8de6ae12265b95ae,64c7fed44a04f777bb1e18ce,64c800ef4456ba0ffa8da6aa,up,1,0.75,0.1786,8,0,0.75,,,,,,65,0,65,0,1,,,,,
,,937547,001,2023-07-31_19h44.10.066,arm3_eps,2022.2.5,Win32,60.0240096,5f3d718e8de6ae12265b95ae,64c7fed44a04f777bb1e18ce,64c800ef4456ba0ffa8da6aa,right,1,0.75,0.1786,8,-0.000917468,0.839,,,,,,66,0,66,0,1,,,,,
,,937547,001,2023-07-31_19h44.10.066,arm3_eps,2022.2.5,Win32,60.0240096,5f3d718e8de6ae12265b95ae,64c7fed44a04f777bb1e18ce,64c800ef4456ba0ffa8da6aa,right,1,0.75,0.1786,8,-0.005779539,1.031,,,,,,67,0,67,0,1,,,,,
,,937547,001,2023-07-31_19h44.10.066,arm3_eps,2022.2.5,Win32,60.0240096,5f3d718e8de6ae12265b95ae,64c7fed44a04f777bb1e18ce,64c800ef4456ba0ffa8da6aa,down,-1,0.75,0.1786,7,0,0.398,,,,,,68,0,68,0,1,,,,,
,,937547,001,2023-07-31_19h44.10.066,arm3_eps,2022.2.5,Win32,60.0240096,5f3d718e8de6ae12265b95ae,64c7fed44a04f777bb1e18ce,64c800ef4456ba0ffa8da6aa,right,-1,0.75,0.1786,7,-0.041129509,0.812,,,,,,69,0,69,0,1,,,,,
,,937547,001,2023-07-31_19h44.10.066,arm3_eps,2022.2.5,Win32,60.0240096,5f3d718e8de6ae12265b95ae,64c7fed44a04f777bb1e18ce,64c800ef4456ba0ffa8da6aa,right,-1,0.75,0.1786,7,-0.063966688,1.016,,,,,,70,0,70,0,1,,,,,
,,937547,001,2023-07-31_19h44.10.066,arm3_eps,2022.2.5,Win32,60.0240096,5f3d718e8de6ae12265b95ae,64c7fed44a04f777bb1e18ce,64c800ef4456ba0ffa8da6aa,down,-1,0.75,0.1786,8,0,0.415,,,,,,71,0,71,0,1,,,,,
,,937547,001,2023-07-31_19h44.10.066,arm3_eps,2022.2.5,Win32,60.0240096,5f3d718e8de6ae12265b95ae,64c7fed44a04f777bb1e18ce,64c800ef4456ba0ffa8da6aa,right,-1,0.75,0.1786,8,-0.001405236,0.929,,,,,,72,0,72,0,1,,,,,
,,937547,001,2023-07-31_19h44.10.066,arm3_eps,2022.2.5,Win32,60.0240096,5f3d718e8de6ae12265b95ae,64c7fed44a04f777bb1e18ce,64c800ef4456ba0ffa8da6aa,right,-1,0.75,0.1786,8,0.036282667,0.636,,,,,,73,0,73,0,1,,,,,
,,937547,001,2023-07-31_19h44.10.066,arm3_eps,2022.2.5,Win32,60.0240096,5f3d718e8de6ae12265b95ae,64c7fed44a04f777bb1e18ce,64c800ef4456ba0ffa8da6aa,up,1,0.75,0.1786,7,0,1.031,,,,,,74,0,74,0,1,,,,,
,,937547,001,2023-07-31_19h44.10.066,arm3_eps,2022.2.5,Win32,60.0240096,5f3d718e8de6ae12265b95ae,64c7fed44a04f777bb1e18ce,64c800ef4456ba0ffa8da6aa,right,1,0.75,0.1786,7,-0.018783347,1.025,,,,,,75,0,75,0,1,,,,,
,,937547,001,2023-07-31_19h44.10.066,arm3_eps,2022.2.5,Win32,60.0240096,5f3d718e8de6ae12265b95ae,64c7fed44a04f777bb1e18ce,64c800ef4456ba0ffa8da6aa,right,1,0.75,0.1786,7,-0.02200586,3.453,,,,,,76,0,76,0,1,,,,,
,,937547,001,2023-07-31_19h44.10.066,arm3_eps,2022.2.5,Win32,60.0240096,5f3d718e8de6ae12265b95ae,64c7fed44a04f777bb1e18ce,64c800ef4456ba0ffa8da6aa,down,1,0.75,0.1786,6,0,0.514,,,,,,77,0,77,0,1,,,,,
,,937547,001,2023-07-31_19h44.10.066,arm3_eps,2022.2.5,Win32,60.0240096,5f3d718e8de6ae12265b95ae,64c7fed44a04f777bb1e18ce,64c800ef4456ba0ffa8da6aa,right,1,0.75,0.1786,6,-0.023536771,0.929,,,,,,78,0,78,0,1,,,,,
,,937547,001,2023-07-31_19h44.10.066,arm3_eps,2022.2.5,Win32,60.0240096,5f3d718e8de6ae12265b95ae,64c7fed44a04f777bb1e18ce,64c800ef4456ba0ffa8da6aa,right,1,0.75,0.1786,6,-0.018400117,0.585,,,,,,79,0,79,0,1,,,,,
,,937547,001,2023-07-31_19h44.10.066,arm3_eps,2022.2.5,Win32,60.0240096,5f3d718e8de6ae12265b95ae,64c7fed44a04f777bb1e18ce,64c800ef4456ba0ffa8da6aa,right,1,0.75,0.1786,6,0.004580229,1.045,,,,,,80,0,80,0,1,,,,,
,,937547,001,2023-07-31_19h44.10.066,arm3_eps,2022.2.5,Win32,60.0240096,5f3d718e8de6ae12265b95ae,64c7fed44a04f777bb1e18ce,64c800ef4456ba0ffa8da6aa,down,-1,0.75,0.1786,6,0,1.347,,,,,,81,0,81,0,1,,,,,
,,937547,001,2023-07-31_19h44.10.066,arm3_eps,2022.2.5,Win32,60.0240096,5f3d718e8de6ae12265b95ae,64c7fed44a04f777bb1e18ce,64c800ef4456ba0ffa8da6aa,right,-1,0.75,0.1786,6,0.006899419,0.89,,,,,,82,0,82,0,1,,,,,
,,937547,001,2023-07-31_19h44.10.066,arm3_eps,2022.2.5,Win32,60.0240096,5f3d718e8de6ae12265b95ae,64c7fed44a04f777bb1e18ce,64c800ef4456ba0ffa8da6aa,right,-1,0.75,0.1786,6,0.022043559,0.603,,,,,,83,0,83,0,1,,,,,
,,937547,001,2023-07-31_19h44.10.066,arm3_eps,2022.2.5,Win32,60.0240096,5f3d718e8de6ae12265b95ae,64c7fed44a04f777bb1e18ce,64c800ef4456ba0ffa8da6aa,up,1,0.75,0.1786,6,0,0.582,,,,,,84,0,84,0,1,,,,,
,,937547,001,2023-07-31_19h44.10.066,arm3_eps,2022.2.5,Win32,60.0240096,5f3d718e8de6ae12265b95ae,64c7fed44a04f777bb1e18ce,64c800ef4456ba0ffa8da6aa,right,1,0.75,0.1786,6,0.005832767,1.205,,,,,,85,0,85,0,1,,,,,
,,937547,001,2023-07-31_19h44.10.066,arm3_eps,2022.2.5,Win32,60.0240096,5f3d718e8de6ae12265b95ae,64c7fed44a04f777bb1e18ce,64c800ef4456ba0ffa8da6aa,right,1,0.75,0.1786,6,0.007249009,0.632,,,,,,86,0,86,0,1,,,,,
,,937547,001,2023-07-31_19h44.10.066,arm3_eps,2022.2.5,Win32,60.0240096,5f3d718e8de6ae12265b95ae,64c7fed44a04f777bb1e18ce,64c800ef4456ba0ffa8da6aa,down,-1,0.75,0.1786,5,0,1.33,,,,,,87,0,87,0,1,,,,,
,,937547,001,2023-07-31_19h44.10.066,arm3_eps,2022.2.5,Win32,60.0240096,5f3d718e8de6ae12265b95ae,64c7fed44a04f777bb1e18ce,64c800ef4456ba0ffa8da6aa,right,-1,0.75,0.1786,5,-0.001571938,0.848,,,,,,88,0,88,0,1,,,,,
,,937547,001,2023-07-31_19h44.10.066,arm3_eps,2022.2.5,Win32,60.0240096,5f3d718e8de6ae12265b95ae,64c7fed44a04f777bb1e18ce,64c800ef4456ba0ffa8da6aa,right,-1,0.75,0.1786,5,-0.045987135,0.681,,,,,,89,0,89,0,1,,,,,
,,937547,001,2023-07-31_19h44.10.066,arm3_eps,2022.2.5,Win32,60.0240096,5f3d718e8de6ae12265b95ae,64c7fed44a04f777bb1e18ce,64c800ef4456ba0ffa8da6aa,down,-1,0.75,0.1786,6,0,0.366,,,,,,90,0,90,0,1,,,,,
,,937547,001,2023-07-31_19h44.10.066,arm3_eps,2022.2.5,Win32,60.0240096,5f3d718e8de6ae12265b95ae,64c7fed44a04f777bb1e18ce,64c800ef4456ba0ffa8da6aa,right,-1,0.75,0.1786,6,-0.016621866,0.968,,,,,,91,0,91,0,1,,,,,
,,937547,001,2023-07-31_19h44.10.066,arm3_eps,2022.2.5,Win32,60.0240096,5f3d718e8de6ae12265b95ae,64c7fed44a04f777bb1e18ce,64c800ef4456ba0ffa8da6aa,right,-1,0.75,0.1786,6,-0.027277888,0.549,,,,,,92,0,92,0,1,,,,,
,,937547,001,2023-07-31_19h44.10.066,arm3_eps,2022.2.5,Win32,60.0240096,5f3d718e8de6ae12265b95ae,64c7fed44a04f777bb1e18ce,64c800ef4456ba0ffa8da6aa,down,1,0.75,0.1786,7,0,0.564,,,,,,93,0,93,0,1,,,,,
,,937547,001,2023-07-31_19h44.10.066,arm3_eps,2022.2.5,Win32,60.0240096,5f3d718e8de6ae12265b95ae,64c7fed44a04f777bb1e18ce,64c800ef4456ba0ffa8da6aa,right,1,0.75,0.1786,7,0.010898107,1.659,,,,,,94,0,94,0,1,,,,,
,,937547,001,2023-07-31_19h44.10.066,arm3_eps,2022.2.5,Win32,60.0240096,5f3d718e8de6ae12265b95ae,64c7fed44a04f777bb1e18ce,64c800ef4456ba0ffa8da6aa,right,1,0.75,0.1786,7,0.023914007,0.53,,,,,,95,0,95,0,1,,,,,
,,937547,001,2023-07-31_19h44.10.066,arm3_eps,2022.2.5,Win32,60.0240096,5f3d718e8de6ae12265b95ae,64c7fed44a04f777bb1e18ce,64c800ef4456ba0ffa8da6aa,up,-1,0.75,0.1786,8,0,0.466,,,,,,96,0,96,0,1,,,,,
,,937547,001,2023-07-31_19h44.10.066,arm3_eps,2022.2.5,Win32,60.0240096,5f3d718e8de6ae12265b95ae,64c7fed44a04f777bb1e18ce,64c800ef4456ba0ffa8da6aa,right,-1,0.75,0.1786,8,-0.004671046,0.942,,,,,,97,0,97,0,1,,,,,
,,937547,001,2023-07-31_19h44.10.066,arm3_eps,2022.2.5,Win32,60.0240096,5f3d718e8de6ae12265b95ae,64c7fed44a04f777bb1e18ce,64c800ef4456ba0ffa8da6aa,right,-1,0.75,0.1786,8,-0.027544183,0.599,,,,,,98,0,98,0,1,,,,,
,,937547,001,2023-07-31_19h44.10.066,arm3_eps,2022.2.5,Win32,60.0240096,5f3d718e8de6ae12265b95ae,64c7fed44a04f777bb1e18ce,64c800ef4456ba0ffa8da6aa,down,-1,0.75,0.1786,9,0,0.448,,,,,,99,0,99,0,1,,,,,
,,937547,001,2023-07-31_19h44.10.066,arm3_eps,2022.2.5,Win32,60.0240096,5f3d718e8de6ae12265b95ae,64c7fed44a04f777bb1e18ce,64c800ef4456ba0ffa8da6aa,right,-1,0.75,0.1786,9,-0.003214429,1.007,,,,,,100,0,100,0,1,,,,,
,,937547,001,2023-07-31_19h44.10.066,arm3_eps,2022.2.5,Win32,60.0240096,5f3d718e8de6ae12265b95ae,64c7fed44a04f777bb1e18ce,64c800ef4456ba0ffa8da6aa,right,-1,0.75,0.1786,9,-0.000298057,0.652,,,,,,101,0,101,0,1,,,,,
,,937547,001,2023-07-31_19h44.10.066,arm3_eps,2022.2.5,Win32,60.0240096,5f3d718e8de6ae12265b95ae,64c7fed44a04f777bb1e18ce,64c800ef4456ba0ffa8da6aa,right,-1,0.75,0.1786,9,0.013245695,0.979,,,,,,102,0,102,0,1,,,,,
,,937547,001,2023-07-31_19h44.10.066,arm3_eps,2022.2.5,Win32,60.0240096,5f3d718e8de6ae12265b95ae,64c7fed44a04f777bb1e18ce,64c800ef4456ba0ffa8da6aa,down,-1,0.75,0.1786,10,0,0.748,,,,,,103,0,103,0,1,,,,,
,,937547,001,2023-07-31_19h44.10.066,arm3_eps,2022.2.5,Win32,60.0240096,5f3d718e8de6ae12265b95ae,64c7fed44a04f777bb1e18ce,64c800ef4456ba0ffa8da6aa,right,-1,0.75,0.1786,10,-0.047404836,0.973,,,,,,104,0,104,0,1,,,,,
,,937547,001,2023-07-31_19h44.10.066,arm3_eps,2022.2.5,Win32,60.0240096,5f3d718e8de6ae12265b95ae,64c7fed44a04f777bb1e18ce,64c800ef4456ba0ffa8da6aa,right,-1,0.75,0.1786,10,-0.067860056,1.05,,,,,,105,0,105,0,1,,,,,
,,937547,001,2023-07-31_19h44.10.066,arm3_eps,2022.2.5,Win32,60.0240096,5f3d718e8de6ae12265b95ae,64c7fed44a04f777bb1e18ce,64c800ef4456ba0ffa8da6aa,down,1,0.75,0.1786,11,0,0.365,,,,,,106,0,106,0,1,,,,,
,,937547,001,2023-07-31_19h44.10.066,arm3_eps,2022.2.5,Win32,60.0240096,5f3d718e8de6ae12265b95ae,64c7fed44a04f777bb1e18ce,64c800ef4456ba0ffa8da6aa,right,1,0.75,0.1786,11,0.013508335,0.959,,,,,,107,0,107,0,1,,,,,
,,937547,001,2023-07-31_19h44.10.066,arm3_eps,2022.2.5,Win32,60.0240096,5f3d718e8de6ae12265b95ae,64c7fed44a04f777bb1e18ce,64c800ef4456ba0ffa8da6aa,right,1,0.75,0.1786,11,0.0044442,0.613,,,,,,108,0,108,0,1,,,,,
,,937547,001,2023-07-31_19h44.10.066,arm3_eps,2022.2.5,Win32,60.0240096,5f3d718e8de6ae12265b95ae,64c7fed44a04f777bb1e18ce,64c800ef4456ba0ffa8da6aa,right,1,0.75,0.1786,11,0.005366856,0.731,,,,,,109,0,109,0,1,,,,,
,,937547,001,2023-07-31_19h44.10.066,arm3_eps,2022.2.5,Win32,60.0240096,5f3d718e8de6ae12265b95ae,64c7fed44a04f777bb1e18ce,64c800ef4456ba0ffa8da6aa,right,1,0.75,0.1786,11,0.005210198,1.277,,,,,,110,0,110,0,1,,,,,
,,937547,001,2023-07-31_19h44.10.066,arm3_eps,2022.2.5,Win32,60.0240096,5f3d718e8de6ae12265b95ae,64c7fed44a04f777bb1e18ce,64c800ef4456ba0ffa8da6aa,up,1,0.75,0.1786,12,0,0.947,,,,,,111,0,111,0,1,,,,,
,,937547,001,2023-07-31_19h44.10.066,arm3_eps,2022.2.5,Win32,60.0240096,5f3d718e8de6ae12265b95ae,64c7fed44a04f777bb1e18ce,64c800ef4456ba0ffa8da6aa,right,1,0.75,0.1786,12,-0.016677255,0.93,,,,,,112,0,112,0,1,,,,,
,,937547,001,2023-07-31_19h44.10.066,arm3_eps,2022.2.5,Win32,60.0240096,5f3d718e8de6ae12265b95ae,64c7fed44a04f777bb1e18ce,64c800ef4456ba0ffa8da6aa,right,1,0.75,0.1786,12,-0.004304378,0.766,,,,,,113,0,113,0,1,,,,,
,,937547,001,2023-07-31_19h44.10.066,arm3_eps,2022.2.5,Win32,60.0240096,5f3d718e8de6ae12265b95ae,64c7fed44a04f777bb1e18ce,64c800ef4456ba0ffa8da6aa,up,1,0.75,0.1786,13,0,1.747,,,,,,114,0,114,0,1,,,,,
,,937547,001,2023-07-31_19h44.10.066,arm3_eps,2022.2.5,Win32,60.0240096,5f3d718e8de6ae12265b95ae,64c7fed44a04f777bb1e18ce,64c800ef4456ba0ffa8da6aa,right,1,0.75,0.1786,13,0.046145801,0.856,,,,,,115,0,115,0,1,,,,,
,,937547,001,2023-07-31_19h44.10.066,arm3_eps,2022.2.5,Win32,60.0240096,5f3d718e8de6ae12265b95ae,64c7fed44a04f777bb1e18ce,64c800ef4456ba0ffa8da6aa,right,1,0.75,0.1786,13,0.06124589,0.483,,,,,,116,0,116,0,1,,,,,
,,937547,001,2023-07-31_19h44.10.066,arm3_eps,2022.2.5,Win32,60.0240096,5f3d718e8de6ae12265b95ae,64c7fed44a04f777bb1e18ce,64c800ef4456ba0ffa8da6aa,up,1,0.75,0.1786,14,0,0.34,,,,,,117,0,117,0,1,,,,,
,,937547,001,2023-07-31_19h44.10.066,arm3_eps,2022.2.5,Win32,60.0240096,5f3d718e8de6ae12265b95ae,64c7fed44a04f777bb1e18ce,64c800ef4456ba0ffa8da6aa,right,1,0.75,0.1786,14,-0.000385651,0.955,,,,,,118,0,118,0,1,,,,,
,,937547,001,2023-07-31_19h44.10.066,arm3_eps,2022.2.5,Win32,60.0240096,5f3d718e8de6ae12265b95ae,64c7fed44a04f777bb1e18ce,64c800ef4456ba0ffa8da6aa,right,1,0.75,0.1786,14,-0.001189105,0.451,,,,,,119,0,119,0,1,,,,,
,,937547,001,2023-07-31_19h44.10.066,arm3_eps,2022.2.5,Win32,60.0240096,5f3d718e8de6ae12265b95ae,64c7fed44a04f777bb1e18ce,64c800ef4456ba0ffa8da6aa,right,1,0.75,0.1786,14,-0.004656081,0.665,,,,,,120,0,120,0,1,,,,,
,,937547,001,2023-07-31_19h44.10.066,arm3_eps,2022.2.5,Win32,60.0240096,5f3d718e8de6ae12265b95ae,64c7fed44a04f777bb1e18ce,64c800ef4456ba0ffa8da6aa,down,1,0.75,0.1786,13,0,0.631,,,,,,121,0,121,0,1,,,,,
,,937547,001,2023-07-31_19h44.10.066,arm3_eps,2022.2.5,Win32,60.0240096,5f3d718e8de6ae12265b95ae,64c7fed44a04f777bb1e18ce,64c800ef4456ba0ffa8da6aa,right,1,0.75,0.1786,13,0.027218544,0.863,,,,,,122,0,122,0,1,,,,,
,,937547,001,2023-07-31_19h44.10.066,arm3_eps,2022.2.5,Win32,60.0240096,5f3d718e8de6ae12265b95ae,64c7fed44a04f777bb1e18ce,64c800ef4456ba0ffa8da6aa,right,1,0.75,0.1786,13,0.015756784,0.648,,,,,,123,0,123,0,1,,,,,
,,937547,001,2023-07-31_19h44.10.066,arm3_eps,2022.2.5,Win32,60.0240096,5f3d718e8de6ae12265b95ae,64c7fed44a04f777bb1e18ce,64c800ef4456ba0ffa8da6aa,right,1,0.75,0.1786,13,0.007425396,0.615,,,,,,124,0,124,0,1,,,,,
,,937547,001,2023-07-31_19h44.10.066,arm3_eps,2022.2.5,Win32,60.0240096,5f3d718e8de6ae12265b95ae,64c7fed44a04f777bb1e18ce,64c800ef4456ba0ffa8da6aa,down,1,0.75,0.1786,12,0,0.769,,,,,,125,0,125,0,1,,,,,
,,937547,001,2023-07-31_19h44.10.066,arm3_eps,2022.2.5,Win32,60.0240096,5f3d718e8de6ae12265b95ae,64c7fed44a04f777bb1e18ce,64c800ef4456ba0ffa8da6aa,right,1,0.75,0.1786,12,0.007854504,0.746,,,,,,126,0,126,0,1,,,,,
,,937547,001,2023-07-31_19h44.10.066,arm3_eps,2022.2.5,Win32,60.0240096,5f3d718e8de6ae12265b95ae,64c7fed44a04f777bb1e18ce,64c800ef4456ba0ffa8da6aa,right,1,0.75,0.1786,12,-0.000285499,0.632,,,,,,127,0,127,0,1,,,,,
,,937547,001,2023-07-31_19h44.10.066,arm3_eps,2022.2.5,Win32,60.0240096,5f3d718e8de6ae12265b95ae,64c7fed44a04f777bb1e18ce,64c800ef4456ba0ffa8da6aa,right,1,0.75,0.1786,12,0.002151602,0.648,,,,,,128,0,128,0,1,,,,,
,,937547,001,2023-07-31_19h44.10.066,arm3_eps,2022.2.5,Win32,60.0240096,5f3d718e8de6ae12265b95ae,64c7fed44a04f777bb1e18ce,64c800ef4456ba0ffa8da6aa,up,1,0.75,0.1786,13,0,0.725,,,,,,129,0,129,0,1,,,,,
,,937547,001,2023-07-31_19h44.10.066,arm3_eps,2022.2.5,Win32,60.0240096,5f3d718e8de6ae12265b95ae,64c7fed44a04f777bb1e18ce,64c800ef4456ba0ffa8da6aa,right,1,0.75,0.1786,13,-0.014436288,0.857,,,,,,130,0,130,0,1,,,,,
,,937547,001,2023-07-31_19h44.10.066,arm3_eps,2022.2.5,Win32,60.0240096,5f3d718e8de6ae12265b95ae,64c7fed44a04f777bb1e18ce,64c800ef4456ba0ffa8da6aa,right,1,0.75,0.1786,13,-0.009319495,0.799,,,,,,131,0,131,0,1,,,,,
,,937547,001,2023-07-31_19h44.10.066,arm3_eps,2022.2.5,Win32,60.0240096,5f3d718e8de6ae12265b95ae,64c7fed44a04f777bb1e18ce,64c800ef4456ba0ffa8da6aa,up,-1,0.75,0.1786,14,0,1.247,,,,,,132,0,132,0,1,,,,,
,,937547,001,2023-07-31_19h44.10.066,arm3_eps,2022.2.5,Win32,60.0240096,5f3d718e8de6ae12265b95ae,64c7fed44a04f777bb1e18ce,64c800ef4456ba0ffa8da6aa,right,-1,0.75,0.1786,14,-0.014247089,0.912,,,,,,133,0,133,0,1,,,,,
,,937547,001,2023-07-31_19h44.10.066,arm3_eps,2022.2.5,Win32,60.0240096,5f3d718e8de6ae12265b95ae,64c7fed44a04f777bb1e18ce,64c800ef4456ba0ffa8da6aa,right,-1,0.75,0.1786,14,-0.056378186,0.848,,,,,,134,0,134,0,1,,,,,
,,937547,001,2023-07-31_19h44.10.066,arm3_eps,2022.2.5,Win32,60.0240096,5f3d718e8de6ae12265b95ae,64c7fed44a04f777bb1e18ce,64c800ef4456ba0ffa8da6aa,down,-1,0.75,0.1786,14,0,0.499,,,,,,135,0,135,0,1,,,,,
,,937547,001,2023-07-31_19h44.10.066,arm3_eps,2022.2.5,Win32,60.0240096,5f3d718e8de6ae12265b95ae,64c7fed44a04f777bb1e18ce,64c800ef4456ba0ffa8da6aa,right,-1,0.75,0.1786,14,-0.035691453,0.906,,,,,,136,0,136,0,1,,,,,
,,937547,001,2023-07-31_19h44.10.066,arm3_eps,2022.2.5,Win32,60.0240096,5f3d718e8de6ae12265b95ae,64c7fed44a04f777bb1e18ce,64c800ef4456ba0ffa8da6aa,right,-1,0.75,0.1786,14,-0.066440494,0.365,,,,,,137,0,137,0,1,,,,,
,,937547,001,2023-07-31_19h44.10.066,arm3_eps,2022.2.5,Win32,60.0240096,5f3d718e8de6ae12265b95ae,64c7fed44a04f777bb1e18ce,64c800ef4456ba0ffa8da6aa,down,1,0.75,0.1786,14,0,0.297,,,,,,138,0,138,0,1,,,,,
,,937547,001,2023-07-31_19h44.10.066,arm3_eps,2022.2.5,Win32,60.0240096,5f3d718e8de6ae12265b95ae,64c7fed44a04f777bb1e18ce,64c800ef4456ba0ffa8da6aa,right,1,0.75,0.1786,14,-0.009570373,1.152,,,,,,139,0,139,0,1,,,,,
,,937547,001,2023-07-31_19h44.10.066,arm3_eps,2022.2.5,Win32,60.0240096,5f3d718e8de6ae12265b95ae,64c7fed44a04f777bb1e18ce,64c800ef4456ba0ffa8da6aa,right,1,0.75,0.1786,14,0.011532383,0.313,,,,,,140,0,140,0,1,,,,,
,,937547,001,2023-07-31_19h44.10.066,arm3_eps,2022.2.5,Win32,60.0240096,5f3d718e8de6ae12265b95ae,64c7fed44a04f777bb1e18ce,64c800ef4456ba0ffa8da6aa,up,1,0.75,0.1786,14,0,0.583,,,,,,141,0,141,0,1,,,,,
,,937547,001,2023-07-31_19h44.10.066,arm3_eps,2022.2.5,Win32,60.0240096,5f3d718e8de6ae12265b95ae,64c7fed44a04f777bb1e18ce,64c800ef4456ba0ffa8da6aa,right,1,0.75,0.1786,14,-0.017131616,0.839,,,,,,142,0,142,0,1,,,,,
,,937547,001,2023-07-31_19h44.10.066,arm3_eps,2022.2.5,Win32,60.0240096,5f3d718e8de6ae12265b95ae,64c7fed44a04f777bb1e18ce,64c800ef4456ba0ffa8da6aa,right,1,0.75,0.1786,14,0.013382928,0.717,,,,,,143,0,143,0,1,,,,,
,,937547,001,2023-07-31_19h44.10.066,arm3_eps,2022.2.5,Win32,60.0240096,5f3d718e8de6ae12265b95ae,64c7fed44a04f777bb1e18ce,64c800ef4456ba0ffa8da6aa,up,1,0.75,0.1786,15,0,0.765,,,,,,144,0,144,0,1,,,,,
,,937547,001,2023-07-31_19h44.10.066,arm3_eps,2022.2.5,Win32,60.0240096,5f3d718e8de6ae12265b95ae,64c7fed44a04f777bb1e18ce,64c800ef4456ba0ffa8da6aa,right,1,0.75,0.1786,15,-0.009706592,0.934,,,,,,145,0,145,0,1,,,,,
,,937547,001,2023-07-31_19h44.10.066,arm3_eps,2022.2.5,Win32,60.0240096,5f3d718e8de6ae12265b95ae,64c7fed44a04f777bb1e18ce,64c800ef4456ba0ffa8da6aa,right,1,0.75,0.1786,15,0.021548883,0.806,,,,,,146,0,146,0,1,,,,,
,,937547,001,2023-07-31_19h44.10.066,arm3_eps,2022.2.5,Win32,60.0240096,5f3d718e8de6ae12265b95ae,64c7fed44a04f777bb1e18ce,64c800ef4456ba0ffa8da6aa,down,1,0.75,0.1786,14,0,0.881,,,,,,147,0,147,0,1,,,,,
,,937547,001,2023-07-31_19h44.10.066,arm3_eps,2022.2.5,Win32,60.0240096,5f3d718e8de6ae12265b95ae,64c7fed44a04f777bb1e18ce,64c800ef4456ba0ffa8da6aa,right,1,0.75,0.1786,14,0.004801043,0.848,,,,,,148,0,148,0,1,,,,,
,,937547,001,2023-07-31_19h44.10.066,arm3_eps,2022.2.5,Win32,60.0240096,5f3d718e8de6ae12265b95ae,64c7fed44a04f777bb1e18ce,64c800ef4456ba0ffa8da6aa,right,1,0.75,0.1786,14,0.00250984,0.347,,,,,,149,0,149,0,1,,,,,
,,937547,001,2023-07-31_19h44.10.066,arm3_eps,2022.2.5,Win32,60.0240096,5f3d718e8de6ae12265b95ae,64c7fed44a04f777bb1e18ce,64c800ef4456ba0ffa8da6aa,down,1,0.75,0.1786,13,0,0.732,,,,,,150,0,150,0,1,,,,,
,,937547,001,2023-07-31_19h44.10.066,arm3_eps,2022.2.5,Win32,60.0240096,5f3d718e8de6ae12265b95ae,64c7fed44a04f777bb1e18ce,64c800ef4456ba0ffa8da6aa,right,1,0.75,0.1786,13,0.005571331,0.892,,,,,,151,0,151,0,1,,,,,
,,937547,001,2023-07-31_19h44.10.066,arm3_eps,2022.2.5,Win32,60.0240096,5f3d718e8de6ae12265b95ae,64c7fed44a04f777bb1e18ce,64c800ef4456ba0ffa8da6aa,right,1,0.75,0.1786,13,0.026270367,0.565,,,,,,152,0,152,0,1,,,,,
,,937547,001,2023-07-31_19h44.10.066,arm3_eps,2022.2.5,Win32,60.0240096,5f3d718e8de6ae12265b95ae,64c7fed44a04f777bb1e18ce,64c800ef4456ba0ffa8da6aa,up,1,0.75,0.1786,14,0,0.369,,,,,,153,0,153,0,1,,,,,
,,937547,001,2023-07-31_19h44.10.066,arm3_eps,2022.2.5,Win32,60.0240096,5f3d718e8de6ae12265b95ae,64c7fed44a04f777bb1e18ce,64c800ef4456ba0ffa8da6aa,right,1,0.75,0.1786,14,0.028263792,0.982,,,,,,154,0,154,0,1,,,,,
,,937547,001,2023-07-31_19h44.10.066,arm3_eps,2022.2.5,Win32,60.0240096,5f3d718e8de6ae12265b95ae,64c7fed44a04f777bb1e18ce,64c800ef4456ba0ffa8da6aa,right,1,0.75,0.1786,14,0.01743324,0.496,,,,,,155,0,155,0,1,,,,,
,,937547,001,2023-07-31_19h44.10.066,arm3_eps,2022.2.5,Win32,60.0240096,5f3d718e8de6ae12265b95ae,64c7fed44a04f777bb1e18ce,64c800ef4456ba0ffa8da6aa,down,1,0.75,0.1786,13,0,0.548,,,,,,156,0,156,0,1,,,,,
,,937547,001,2023-07-31_19h44.10.066,arm3_eps,2022.2.5,Win32,60.0240096,5f3d718e8de6ae12265b95ae,64c7fed44a04f777bb1e18ce,64c800ef4456ba0ffa8da6aa,right,1,0.75,0.1786,13,-0.015306263,0.733,,,,,,157,0,157,0,1,,,,,
,,937547,001,2023-07-31_19h44.10.066,arm3_eps,2022.2.5,Win32,60.0240096,5f3d718e8de6ae12265b95ae,64c7fed44a04f777bb1e18ce,64c800ef4456ba0ffa8da6aa,right,1,0.75,0.1786,13,0.005543421,0.614,,,,,,158,0,158,0,1,,,,,
,,937547,001,2023-07-31_19h44.10.066,arm3_eps,2022.2.5,Win32,60.0240096,5f3d718e8de6ae12265b95ae,64c7fed44a04f777bb1e18ce,64c800ef4456ba0ffa8da6aa,down,1,0.75,0.1786,12,0,0.631,,,,,,159,0,159,0,1,,,,,
,,937547,001,2023-07-31_19h44.10.066,arm3_eps,2022.2.5,Win32,60.0240096,5f3d718e8de6ae12265b95ae,64c7fed44a04f777bb1e18ce,64c800ef4456ba0ffa8da6aa,right,1,0.75,0.1786,12,0.037779093,0.738,,,,,,160,0,160,0,1,,,,,
,,937547,001,2023-07-31_19h44.10.066,arm3_eps,2022.2.5,Win32,60.0240096,5f3d718e8de6ae12265b95ae,64c7fed44a04f777bb1e18ce,64c800ef4456ba0ffa8da6aa,right,1,0.75,0.1786,12,0.052787507,0.368,,,,,,161,0,161,0,1,,,,,
,,937547,001,2023-07-31_19h44.10.066,arm3_eps,2022.2.5,Win32,60.0240096,5f3d718e8de6ae12265b95ae,64c7fed44a04f777bb1e18ce,64c800ef4456ba0ffa8da6aa,up,-1,0.75,0.1786,13,0,0.264,,,,,,162,0,162,0,1,,,,,
,,937547,001,2023-07-31_19h44.10.066,arm3_eps,2022.2.5,Win32,60.0240096,5f3d718e8de6ae12265b95ae,64c7fed44a04f777bb1e18ce,64c800ef4456ba0ffa8da6aa,right,-1,0.75,0.1786,13,-1.48292E-05,0.895,,,,,,163,0,163,0,1,,,,,
,,937547,001,2023-07-31_19h44.10.066,arm3_eps,2022.2.5,Win32,60.0240096,5f3d718e8de6ae12265b95ae,64c7fed44a04f777bb1e18ce,64c800ef4456ba0ffa8da6aa,right,-1,0.75,0.1786,13,-0.011422157,0.382,,,,,,164,0,164,0,1,,,,,
,,937547,001,2023-07-31_19h44.10.066,arm3_eps,2022.2.5,Win32,60.0240096,5f3d718e8de6ae12265b95ae,64c7fed44a04f777bb1e18ce,64c800ef4456ba0ffa8da6aa,up,-1,0.75,0.1786,13,0,0.896,,,,,,165,0,165,0,1,,,,,
,,937547,001,2023-07-31_19h44.10.066,arm3_eps,2022.2.5,Win32,60.0240096,5f3d718e8de6ae12265b95ae,64c7fed44a04f777bb1e18ce,64c800ef4456ba0ffa8da6aa,right,-1,0.75,0.1786,13,-0.009335075,0.695,,,,,,166,0,166,0,1,,,,,
,,937547,001,2023-07-31_19h44.10.066,arm3_eps,2022.2.5,Win32,60.0240096,5f3d718e8de6ae12265b95ae,64c7fed44a04f777bb1e18ce,64c800ef4456ba0ffa8da6aa,right,-1,0.75,0.1786,13,-0.018130204,0.4,,,,,,167,0,167,0,1,,,,,
,,937547,001,2023-07-31_19h44.10.066,arm3_eps,2022.2.5,Win32,60.0240096,5f3d718e8de6ae12265b95ae,64c7fed44a04f777bb1e18ce,64c800ef4456ba0ffa8da6aa,down,-1,0.75,0.1786,13,0,0.363,,,,,,168,0,168,0,1,,,,,
,,937547,001,2023-07-31_19h44.10.066,arm3_eps,2022.2.5,Win32,60.0240096,5f3d718e8de6ae12265b95ae,64c7fed44a04f777bb1e18ce,64c800ef4456ba0ffa8da6aa,right,-1,0.75,0.1786,13,-0.013379125,0.814,,,,,,169,0,169,0,1,,,,,
,,937547,001,2023-07-31_19h44.10.066,arm3_eps,2022.2.5,Win32,60.0240096,5f3d718e8de6ae12265b95ae,64c7fed44a04f777bb1e18ce,64c800ef4456ba0ffa8da6aa,right,-1,0.75,0.1786,13,0.002203604,0.29,,,,,,170,0,170,0,1,,,,,
,,937547,001,2023-07-31_19h44.10.066,arm3_eps,2022.2.5,Win32,60.0240096,5f3d718e8de6ae12265b95ae,64c7fed44a04f777bb1e18ce,64c800ef4456ba0ffa8da6aa,right,-1,0.75,0.1786,13,0.003644476,1.083,,,,,,171,0,171,0,1,,,,,
,,937547,001,2023-07-31_19h44.10.066,arm3_eps,2022.2.5,Win32,60.0240096,5f3d718e8de6ae12265b95ae,64c7fed44a04f777bb1e18ce,64c800ef4456ba0ffa8da6aa,down,-1,0.75,0.1786,14,0,0.696,,,,,,172,0,172,0,1,,,,,
,,937547,001,2023-07-31_19h44.10.066,arm3_eps,2022.2.5,Win32,60.0240096,5f3d718e8de6ae12265b95ae,64c7fed44a04f777bb1e18ce,64c800ef4456ba0ffa8da6aa,right,-1,0.75,0.1786,14,-0.027480499,0.768,,,,,,173,0,173,0,1,,,,,
,,937547,001,2023-07-31_19h44.10.066,arm3_eps,2022.2.5,Win32,60.0240096,5f3d718e8de6ae12265b95ae,64c7fed44a04f777bb1e18ce,64c800ef4456ba0ffa8da6aa,right,-1,0.75,0.1786,14,-0.04552189,0.463,,,,,,174,0,174,0,1,,,,,
,,937547,001,2023-07-31_19h44.10.066,arm3_eps,2022.2.5,Win32,60.0240096,5f3d718e8de6ae12265b95ae,64c7fed44a04f777bb1e18ce,64c800ef4456ba0ffa8da6aa,down,-1,0.75,0.1786,15,0,0.475,,,,,,175,0,175,0,1,,,,,
,,937547,001,2023-07-31_19h44.10.066,arm3_eps,2022.2.5,Win32,60.0240096,5f3d718e8de6ae12265b95ae,64c7fed44a04f777bb1e18ce,64c800ef4456ba0ffa8da6aa,right,-1,0.75,0.1786,15,0.00519434,0.788,,,,,,176,0,176,0,1,,,,,
,,937547,001,2023-07-31_19h44.10.066,arm3_eps,2022.2.5,Win32,60.0240096,5f3d718e8de6ae12265b95ae,64c7fed44a04f777bb1e18ce,64c800ef4456ba0ffa8da6aa,right,-1,0.75,0.1786,15,-0.013165914,0.899,,,,,,177,0,177,0,1,,,,,
,,937547,001,2023-07-31_19h44.10.066,arm3_eps,2022.2.5,Win32,60.0240096,5f3d718e8de6ae12265b95ae,64c7fed44a04f777bb1e18ce,64c800ef4456ba0ffa8da6aa,up,-1,0.75,0.1786,15,0,0.486,,,,,,178,0,178,0,1,,,,,
,,937547,001,2023-07-31_19h44.10.066,arm3_eps,2022.2.5,Win32,60.0240096,5f3d718e8de6ae12265b95ae,64c7fed44a04f777bb1e18ce,64c800ef4456ba0ffa8da6aa,right,-1,0.75,0.1786,15,0.016975715,0.857,,,,,,179,0,179,0,1,,,,,
,,937547,001,2023-07-31_19h44.10.066,arm3_eps,2022.2.5,Win32,60.0240096,5f3d718e8de6ae12265b95ae,64c7fed44a04f777bb1e18ce,64c800ef4456ba0ffa8da6aa,right,-1,0.75,0.1786,15,-0.017223028,0.765,,,,,,180,0,180,0,1,,,,,
,,937547,001,2023-07-31_19h44.10.066,arm3_eps,2022.2.5,Win32,60.0240096,5f3d718e8de6ae12265b95ae,64c7fed44a04f777bb1e18ce,64c800ef4456ba0ffa8da6aa,down,1,0.75,0.1786,16,0,0.61,,,,,,181,0,181,0,1,,,,,
,,937547,001,2023-07-31_19h44.10.066,arm3_eps,2022.2.5,Win32,60.0240096,5f3d718e8de6ae12265b95ae,64c7fed44a04f777bb1e18ce,64c800ef4456ba0ffa8da6aa,right,1,0.75,0.1786,16,0.031779184,1.156,,,,,,182,0,182,0,1,,,,,
,,937547,001,2023-07-31_19h44.10.066,arm3_eps,2022.2.5,Win32,60.0240096,5f3d718e8de6ae12265b95ae,64c7fed44a04f777bb1e18ce,64c800ef4456ba0ffa8da6aa,right,1,0.75,0.1786,16,0.017778628,0.633,,,,,,183,0,183,0,1,,,,,
,,937547,001,2023-07-31_19h44.10.066,arm3_eps,2022.2.5,Win32,60.0240096,5f3d718e8de6ae12265b95ae,64c7fed44a04f777bb1e18ce,64c800ef4456ba0ffa8da6aa,down,1,0.75,0.1786,15,0,0.613,,,,,,184,0,184,0,1,,,,,
,,937547,001,2023-07-31_19h44.10.066,arm3_eps,2022.2.5,Win32,60.0240096,5f3d718e8de6ae12265b95ae,64c7fed44a04f777bb1e18ce,64c800ef4456ba0ffa8da6aa,right,1,0.75,0.1786,15,0.034375392,0.623,,,,,,185,0,185,0,1,,,,,
,,937547,001,2023-07-31_19h44.10.066,arm3_eps,2022.2.5,Win32,60.0240096,5f3d718e8de6ae12265b95ae,64c7fed44a04f777bb1e18ce,64c800ef4456ba0ffa8da6aa,right,1,0.75,0.1786,15,0.05509453,0.381,,,,,,186,0,186,0,1,,,,,
,,937547,001,2023-07-31_19h44.10.066,arm3_eps,2022.2.5,Win32,60.0240096,5f3d718e8de6ae12265b95ae,64c7fed44a04f777bb1e18ce,64c800ef4456ba0ffa8da6aa,up,1,0.75,0.1786,16,0,0.347,,,,,,187,0,187,0,1,,,,,
,,937547,001,2023-07-31_19h44.10.066,arm3_eps,2022.2.5,Win32,60.0240096,5f3d718e8de6ae12265b95ae,64c7fed44a04f777bb1e18ce,64c800ef4456ba0ffa8da6aa,right,1,0.75,0.1786,16,0.053018328,1.009,,,,,,188,0,188,0,1,,,,,
,,937547,001,2023-07-31_19h44.10.066,arm3_eps,2022.2.5,Win32,60.0240096,5f3d718e8de6ae12265b95ae,64c7fed44a04f777bb1e18ce,64c800ef4456ba0ffa8da6aa,right,1,0.75,0.1786,16,0.033748529,0.967,,,,,,189,0,189,0,1,,,,,
,,937547,001,2023-07-31_19h44.10.066,arm3_eps,2022.2.5,Win32,60.0240096,5f3d718e8de6ae12265b95ae,64c7fed44a04f777bb1e18ce,64c800ef4456ba0ffa8da6aa,up,1,0.75,0.1786,17,0,0.634,,,,,,190,0,190,0,1,,,,,
,,937547,001,2023-07-31_19h44.10.066,arm3_eps,2022.2.5,Win32,60.0240096,5f3d718e8de6ae12265b95ae,64c7fed44a04f777bb1e18ce,64c800ef4456ba0ffa8da6aa,right,1,0.75,0.1786,17,-0.019231687,1.331,,,,,,191,0,191,0,1,,,,,
,,937547,001,2023-07-31_19h44.10.066,arm3_eps,2022.2.5,Win32,60.0240096,5f3d718e8de6ae12265b95ae,64c7fed44a04f777bb1e18ce,64c800ef4456ba0ffa8da6aa,right,1,0.75,0.1786,17,0.015700525,0.665,,,,,,192,0,192,0,1,,,,,
,,937547,001,2023-07-31_19h44.10.066,arm3_eps,2022.2.5,Win32,60.0240096,5f3d718e8de6ae12265b95ae,64c7fed44a04f777bb1e18ce,64c800ef4456ba0ffa8da6aa,up,-1,0.75,0.1786,17,0,0.614,,,,,,193,0,193,0,1,,,,,
,,937547,001,2023-07-31_19h44.10.066,arm3_eps,2022.2.5,Win32,60.0240096,5f3d718e8de6ae12265b95ae,64c7fed44a04f777bb1e18ce,64c800ef4456ba0ffa8da6aa,right,-1,0.75,0.1786,17,-0.027892234,0.712,,,,,,194,0,194,0,1,,,,,
,,937547,001,2023-07-31_19h44.10.066,arm3_eps,2022.2.5,Win32,60.0240096,5f3d718e8de6ae12265b95ae,64c7fed44a04f777bb1e18ce,64c800ef4456ba0ffa8da6aa,down,-1,0.75,0.1786,18,0,0.798,,,,,,195,0,195,0,1,,,,,
,,937547,001,2023-07-31_19h44.10.066,arm3_eps,2022.2.5,Win32,60.0240096,5f3d718e8de6ae12265b95ae,64c7fed44a04f777bb1e18ce,64c800ef4456ba0ffa8da6aa,right,-1,0.75,0.1786,18,-0.026745928,0.788,,,,,,196,0,196,0,1,,,,,
,,937547,001,2023-07-31_19h44.10.066,arm3_eps,2022.2.5,Win32,60.0240096,5f3d718e8de6ae12265b95ae,64c7fed44a04f777bb1e18ce,64c800ef4456ba0ffa8da6aa,down,-1,0.75,0.1786,19,0,0.6,,,,,,197,0,197,0,1,,,,,
,,937547,001,2023-07-31_19h44.10.066,arm3_eps,2022.2.5,Win32,60.0240096,5f3d718e8de6ae12265b95ae,64c7fed44a04f777bb1e18ce,64c800ef4456ba0ffa8da6aa,right,-1,0.75,0.1786,19,-0.028082902,0.83,,,,,,198,0,198,0,1,,,,,
,,937547,001,2023-07-31_19h44.10.066,arm3_eps,2022.2.5,Win32,60.0240096,5f3d718e8de6ae12265b95ae,64c7fed44a04f777bb1e18ce,64c800ef4456ba0ffa8da6aa,right,-1,0.75,0.1786,19,-0.01622988,1.332,,,,,,199,0,199,0,1,,,,,
,,937547,001,2023-07-31_19h44.10.066,arm3_eps,2022.2.5,Win32,60.0240096,5f3d718e8de6ae12265b95ae,64c7fed44a04f777bb1e18ce,64c800ef4456ba0ffa8da6aa,up,-1,0.75,0.1786,18,0,1.465,,,,,,200,0,200,0,1,,,,,
,,937547,001,2023-07-31_19h44.10.066,arm3_eps,2022.2.5,Win32,60.0240096,5f3d718e8de6ae12265b95ae,64c7fed44a04f777bb1e18ce,64c800ef4456ba0ffa8da6aa,right,-1,0.75,0.1786,18,0.026487697,0.696,,,,,,201,0,201,0,1,,,,,
,,937547,001,2023-07-31_19h44.10.066,arm3_eps,2022.2.5,Win32,60.0240096,5f3d718e8de6ae12265b95ae,64c7fed44a04f777bb1e18ce,64c800ef4456ba0ffa8da6aa,right,-1,0.75,0.1786,18,0.006104325,0.832,,,,,,202,0,202,0,1,,,,,
,,937547,001,2023-07-31_19h44.10.066,arm3_eps,2022.2.5,Win32,60.0240096,5f3d718e8de6ae12265b95ae,64c7fed44a04f777bb1e18ce,64c800ef4456ba0ffa8da6aa,down,-1,0.75,0.1786,19,0,0.785,,,,,,203,0,203,0,1,,,,,
,,937547,001,2023-07-31_19h44.10.066,arm3_eps,2022.2.5,Win32,60.0240096,5f3d718e8de6ae12265b95ae,64c7fed44a04f777bb1e18ce,64c800ef4456ba0ffa8da6aa,right,-1,0.75,0.1786,19,-0.034996134,0.759,,,,,,204,0,204,0,1,,,,,
,,937547,001,2023-07-31_19h44.10.066,arm3_eps,2022.2.5,Win32,60.0240096,5f3d718e8de6ae12265b95ae,64c7fed44a04f777bb1e18ce,64c800ef4456ba0ffa8da6aa,down,-1,0.75,0.1786,20,0,0.632,,,,,,205,0,205,0,1,,,,,
,,937547,001,2023-07-31_19h44.10.066,arm3_eps,2022.2.5,Win32,60.0240096,5f3d718e8de6ae12265b95ae,64c7fed44a04f777bb1e18ce,64c800ef4456ba0ffa8da6aa,right,-1,0.75,0.1786,20,-0.00831642,0.816,,,,,,206,0,206,0,1,,,,,
,,937547,001,2023-07-31_19h44.10.066,arm3_eps,2022.2.5,Win32,60.0240096,5f3d718e8de6ae12265b95ae,64c7fed44a04f777bb1e18ce,64c800ef4456ba0ffa8da6aa,right,-1,0.75,0.1786,20,-0.017360235,0.848,,,,,,207,0,207,0,1,,,,,
,,937547,001,2023-07-31_19h44.10.066,arm3_eps,2022.2.5,Win32,60.0240096,5f3d718e8de6ae12265b95ae,64c7fed44a04f777bb1e18ce,64c800ef4456ba0ffa8da6aa,down,-1,0.75,0.1786,20,0,0.415,,,,,,208,0,208,0,1,,,,,
,,937547,001,2023-07-31_19h44.10.066,arm3_eps,2022.2.5,Win32,60.0240096,5f3d718e8de6ae12265b95ae,64c7fed44a04f777bb1e18ce,64c800ef4456ba0ffa8da6aa,right,-1,0.75,0.1786,20,0.009862341,0.788,,,,,,209,0,209,0,1,,,,,
,,937547,001,2023-07-31_19h44.10.066,arm3_eps,2022.2.5,Win32,60.0240096,5f3d718e8de6ae12265b95ae,64c7fed44a04f777bb1e18ce,64c800ef4456ba0ffa8da6aa,right,-1,0.75,0.1786,20,-0.034174699,0.548,,,,,,210,0,210,0,1,,,,,
,,937547,001,2023-07-31_19h44.10.066,arm3_eps,2022.2.5,Win32,60.0240096,5f3d718e8de6ae12265b95ae,64c7fed44a04f777bb1e18ce,64c800ef4456ba0ffa8da6aa,down,-1,0.75,0.1786,21,0,0.865,,,,,,211,0,211,0,1,,,,,
,,937547,001,2023-07-31_19h44.10.066,arm3_eps,2022.2.5,Win32,60.0240096,5f3d718e8de6ae12265b95ae,64c7fed44a04f777bb1e18ce,64c800ef4456ba0ffa8da6aa,right,-1,0.75,0.1786,21,-0.019840601,0.797,,,,,,212,0,212,0,1,,,,,
,,937547,001,2023-07-31_19h44.10.066,arm3_eps,2022.2.5,Win32,60.0240096,5f3d718e8de6ae12265b95ae,64c7fed44a04f777bb1e18ce,64c800ef4456ba0ffa8da6aa,right,-1,0.75,0.1786,21,-0.044591404,0.455,,,,,,213,0,213,0,1,,,,,
,,937547,001,2023-07-31_19h44.10.066,arm3_eps,2022.2.5,Win32,60.0240096,5f3d718e8de6ae12265b95ae,64c7fed44a04f777bb1e18ce,64c800ef4456ba0ffa8da6aa,down,-1,0.75,0.1786,22,0,0.346,,,,,,214,0,214,0,1,,,,,
,,937547,001,2023-07-31_19h44.10.066,arm3_eps,2022.2.5,Win32,60.0240096,5f3d718e8de6ae12265b95ae,64c7fed44a04f777bb1e18ce,64c800ef4456ba0ffa8da6aa,right,-1,0.75,0.1786,22,-0.008954439,0.822,,,,,,215,0,215,0,1,,,,,
,,937547,001,2023-07-31_19h44.10.066,arm3_eps,2022.2.5,Win32,60.0240096,5f3d718e8de6ae12265b95ae,64c7fed44a04f777bb1e18ce,64c800ef4456ba0ffa8da6aa,down,-1,0.75,0.1786,23,0,0.516,,,,,,216,0,216,0,1,,,,,
,,937547,001,2023-07-31_19h44.10.066,arm3_eps,2022.2.5,Win32,60.0240096,5f3d718e8de6ae12265b95ae,64c7fed44a04f777bb1e18ce,64c800ef4456ba0ffa8da6aa,right,-1,0.75,0.1786,23,-0.003430576,0.842,,,,,,217,0,217,0,1,,,,,
,,937547,001,2023-07-31_19h44.10.066,arm3_eps,2022.2.5,Win32,60.0240096,5f3d718e8de6ae12265b95ae,64c7fed44a04f777bb1e18ce,64c800ef4456ba0ffa8da6aa,right,-1,0.75,0.1786,23,0.008792417,0.787,,,,,,218,0,218,0,1,,,,,
,,937547,001,2023-07-31_19h44.10.066,arm3_eps,2022.2.5,Win32,60.0240096,5f3d718e8de6ae12265b95ae,64c7fed44a04f777bb1e18ce,64c800ef4456ba0ffa8da6aa,right,-1,0.75,0.1786,23,-0.022631093,1.496,,,,,,219,0,219,0,1,,,,,
,,937547,001,2023-07-31_19h44.10.066,arm3_eps,2022.2.5,Win32,60.0240096,5f3d718e8de6ae12265b95ae,64c7fed44a04f777bb1e18ce,64c800ef4456ba0ffa8da6aa,up,-1,0.75,0.1786,22,0,0.764,,,,,,220,0,220,0,1,,,,,
,,937547,001,2023-07-31_19h44.10.066,arm3_eps,2022.2.5,Win32,60.0240096,5f3d718e8de6ae12265b95ae,64c7fed44a04f777bb1e18ce,64c800ef4456ba0ffa8da6aa,right,-1,0.75,0.1786,22,-0.001466992,0.84,,,,,,221,0,221,0,1,,,,,
,,937547,001,2023-07-31_19h44.10.066,arm3_eps,2022.2.5,Win32,60.0240096,5f3d718e8de6ae12265b95ae,64c7fed44a04f777bb1e18ce,64c800ef4456ba0ffa8da6aa,down,1,0.75,0.1786,23,0,0.896,,,,,,222,0,222,0,1,,,,,
,,937547,001,2023-07-31_19h44.10.066,arm3_eps,2022.2.5,Win32,60.0240096,5f3d718e8de6ae12265b95ae,64c7fed44a04f777bb1e18ce,64c800ef4456ba0ffa8da6aa,right,1,0.75,0.1786,23,0.005328713,0.724,,,,,,223,0,223,0,1,,,,,
,,937547,001,2023-07-31_19h44.10.066,arm3_eps,2022.2.5,Win32,60.0240096,5f3d718e8de6ae12265b95ae,64c7fed44a04f777bb1e18ce,64c800ef4456ba0ffa8da6aa,up,-1,0.75,0.1786,24,0,0.531,,,,,,224,0,224,0,1,,,,,
,,937547,001,2023-07-31_19h44.10.066,arm3_eps,2022.2.5,Win32,60.0240096,5f3d718e8de6ae12265b95ae,64c7fed44a04f777bb1e18ce,64c800ef4456ba0ffa8da6aa,right,-1,0.75,0.1786,24,0.014235123,0.841,,,,,,225,0,225,0,1,,,,,
,,937547,001,2023-07-31_19h44.10.066,arm3_eps,2022.2.5,Win32,60.0240096,5f3d718e8de6ae12265b95ae,64c7fed44a04f777bb1e18ce,64c800ef4456ba0ffa8da6aa,down,-1,0.75,0.1786,24,0,1.117,,,,,,226,0,226,0,1,,,,,
,,937547,001,2023-07-31_19h44.10.066,arm3_eps,2022.2.5,Win32,60.0240096,5f3d718e8de6ae12265b95ae,64c7fed44a04f777bb1e18ce,64c800ef4456ba0ffa8da6aa,right,-1,0.75,0.1786,24,0.005692784,0.723,,,,,,227,0,227,0,1,,,,,
,,937547,001,2023-07-31_19h44.10.066,arm3_eps,2022.2.5,Win32,60.0240096,5f3d718e8de6ae12265b95ae,64c7fed44a04f777bb1e18ce,64c800ef4456ba0ffa8da6aa,up,-1,0.75,0.1786,23,0,0.564,,,,,,228,0,228,0,1,,,,,
,,937547,001,2023-07-31_19h44.10.066,arm3_eps,2022.2.5,Win32,60.0240096,5f3d718e8de6ae12265b95ae,64c7fed44a04f777bb1e18ce,64c800ef4456ba0ffa8da6aa,right,-1,0.75,0.1786,23,-0.008020705,0.741,,,,,,229,0,229,0,1,,,,,
,,937547,001,2023-07-31_19h44.10.066,arm3_eps,2022.2.5,Win32,60.0240096,5f3d718e8de6ae12265b95ae,64c7fed44a04f777bb1e18ce,64c800ef4456ba0ffa8da6aa,right,-1,0.75,0.1786,23,0.003724165,0.848,,,,,,230,0,230,0,1,,,,,
,,937547,001,2023-07-31_19h44.10.066,arm3_eps,2022.2.5,Win32,60.0240096,5f3d718e8de6ae12265b95ae,64c7fed44a04f777bb1e18ce,64c800ef4456ba0ffa8da6aa,down,-1,0.75,0.1786,24,0,0.598,,,,,,231,0,231,0,1,,,,,
,,937547,001,2023-07-31_19h44.10.066,arm3_eps,2022.2.5,Win32,60.0240096,5f3d718e8de6ae12265b95ae,64c7fed44a04f777bb1e18ce,64c800ef4456ba0ffa8da6aa,right,-1,0.75,0.1786,24,-0.027459556,0.774,,,,,,232,0,232,0,1,,,,,
,,937547,001,2023-07-31_19h44.10.066,arm3_eps,2022.2.5,Win32,60.0240096,5f3d718e8de6ae12265b95ae,64c7fed44a04f777bb1e18ce,64c800ef4456ba0ffa8da6aa,down,-1,0.75,0.1786,25,0,0.585,,,,,,233,0,233,0,1,,,,,
,,937547,001,2023-07-31_19h44.10.066,arm3_eps,2022.2.5,Win32,60.0240096,5f3d718e8de6ae12265b95ae,64c7fed44a04f777bb1e18ce,64c800ef4456ba0ffa8da6aa,right,-1,0.75,0.1786,25,0.023619217,0.726,,,,,,234,0,234,0,1,,,,,
,,937547,001,2023-07-31_19h44.10.066,arm3_eps,2022.2.5,Win32,60.0240096,5f3d718e8de6ae12265b95ae,64c7fed44a04f777bb1e18ce,64c800ef4456ba0ffa8da6aa,right,-1,0.75,0.1786,25,0.006450182,1.731,,,,,,235,0,235,0,1,,,,,
,,937547,001,2023-07-31_19h44.10.066,arm3_eps,2022.2.5,Win32,60.0240096,5f3d718e8de6ae12265b95ae,64c7fed44a04f777bb1e18ce,64c800ef4456ba0ffa8da6aa,down,-1,0.75,0.1786,26,0,0.53,,,,,,236,0,236,0,1,,,,,
,,937547,001,2023-07-31_19h44.10.066,arm3_eps,2022.2.5,Win32,60.0240096,5f3d718e8de6ae12265b95ae,64c7fed44a04f777bb1e18ce,64c800ef4456ba0ffa8da6aa,right,-1,0.75,0.1786,26,0.016116893,0.729,,,,,,237,0,237,0,1,,,,,
,,937547,001,2023-07-31_19h44.10.066,arm3_eps,2022.2.5,Win32,60.0240096,5f3d718e8de6ae12265b95ae,64c7fed44a04f777bb1e18ce,64c800ef4456ba0ffa8da6aa,down,1,0.75,0.1786,26,0,0.868,,,,,,238,0,238,0,1,,,,,
,,937547,001,2023-07-31_19h44.10.066,arm3_eps,2022.2.5,Win32,60.0240096,5f3d718e8de6ae12265b95ae,64c7fed44a04f777bb1e18ce,64c800ef4456ba0ffa8da6aa,right,1,0.75,0.1786,26,0.017202301,1.009,,,,,,239,0,239,0,1,,,,,
,,937547,001,2023-07-31_19h44.10.066,arm3_eps,2022.2.5,Win32,60.0240096,5f3d718e8de6ae12265b95ae,64c7fed44a04f777bb1e18ce,64c800ef4456ba0ffa8da6aa,up,1,0.75,0.1786,27,0,0.399,,,,,,240,0,240,0,1,,,,,
,,937547,001,2023-07-31_19h44.10.066,arm3_eps,2022.2.5,Win32,60.0240096,5f3d718e8de6ae12265b95ae,64c7fed44a04f777bb1e18ce,64c800ef4456ba0ffa8da6aa,right,1,0.75,0.1786,27,-0.002905096,1.079,,,,,,241,0,241,0,1,,,,,
,,937547,001,2023-07-31_19h44.10.066,arm3_eps,2022.2.5,Win32,60.0240096,5f3d718e8de6ae12265b95ae,64c7fed44a04f777bb1e18ce,64c800ef4456ba0ffa8da6aa,down,1,0.75,0.1786,26,0,1.132,,,,,,242,0,242,0,1,,,,,
,,937547,001,2023-07-31_19h44.10.066,arm3_eps,2022.2.5,Win32,60.0240096,5f3d718e8de6ae12265b95ae,64c7fed44a04f777bb1e18ce,64c800ef4456ba0ffa8da6aa,right,1,0.75,0.1786,26,-0.01553857,0.765,,,,,,243,0,243,0,1,,,,,
,,937547,001,2023-07-31_19h44.10.066,arm3_eps,2022.2.5,Win32,60.0240096,5f3d718e8de6ae12265b95ae,64c7fed44a04f777bb1e18ce,64c800ef4456ba0ffa8da6aa,down,1,0.75,0.1786,26,0,1.201,,,,,,244,0,244,0,1,,,,,
,,937547,001,2023-07-31_19h44.10.066,arm3_eps,2022.2.5,Win32,60.0240096,5f3d718e8de6ae12265b95ae,64c7fed44a04f777bb1e18ce,64c800ef4456ba0ffa8da6aa,right,1,0.75,0.1786,26,-0.038948017,0.686,,,,,,245,0,245,0,1,,,,,
,,937547,001,2023-07-31_19h44.10.066,arm3_eps,2022.2.5,Win32,60.0240096,5f3d718e8de6ae12265b95ae,64c7fed44a04f777bb1e18ce,64c800ef4456ba0ffa8da6aa,down,1,0.75,0.1786,25,0,0.484,,,,,,246,0,246,0,1,,,,,
,,937547,001,2023-07-31_19h44.10.066,arm3_eps,2022.2.5,Win32,60.0240096,5f3d718e8de6ae12265b95ae,64c7fed44a04f777bb1e18ce,64c800ef4456ba0ffa8da6aa,right,1,0.75,0.1786,25,0.029317544,0.811,,,,,,247,0,247,0,1,,,,,
,,937547,001,2023-07-31_19h44.10.066,arm3_eps,2022.2.5,Win32,60.0240096,5f3d718e8de6ae12265b95ae,64c7fed44a04f777bb1e18ce,64c800ef4456ba0ffa8da6aa,up,1,0.75,0.1786,26,0,1.098,,,,,,248,0,248,0,1,,,,,
,,937547,001,2023-07-31_19h44.10.066,arm3_eps,2022.2.5,Win32,60.0240096,5f3d718e8de6ae12265b95ae,64c7fed44a04f777bb1e18ce,64c800ef4456ba0ffa8da6aa,right,1,0.75,0.1786,26,0.019731047,0.756,,,,,,249,0,249,0,1,,,,,
,,937547,001,2023-07-31_19h44.10.066,arm3_eps,2022.2.5,Win32,60.0240096,5f3d718e8de6ae12265b95ae,64c7fed44a04f777bb1e18ce,64c800ef4456ba0ffa8da6aa,up,-1,0.75,0.1786,27,0,0.464,,,,,,250,0,250,0,1,,,,,
,,937547,001,2023-07-31_19h44.10.066,arm3_eps,2022.2.5,Win32,60.0240096,5f3d718e8de6ae12265b95ae,64c7fed44a04f777bb1e18ce,64c800ef4456ba0ffa8da6aa,right,-1,0.75,0.1786,27,1.13711E-05,0.798,,,,,,251,0,251,0,1,,,,,
,,937547,001,2023-07-31_19h44.10.066,arm3_eps,2022.2.5,Win32,60.0240096,5f3d718e8de6ae12265b95ae,64c7fed44a04f777bb1e18ce,64c800ef4456ba0ffa8da6aa,up,-1,0.75,0.1786,27,0,0.798,,,,,,252,0,252,0,1,,,,,
,,937547,001,2023-07-31_19h44.10.066,arm3_eps,2022.2.5,Win32,60.0240096,5f3d718e8de6ae12265b95ae,64c7fed44a04f777bb1e18ce,64c800ef4456ba0ffa8da6aa,right,-1,0.75,0.1786,27,-0.009987025,0.79,,,,,,253,0,253,0,1,,,,,
,,937547,001,2023-07-31_19h44.10.066,arm3_eps,2022.2.5,Win32,60.0240096,5f3d718e8de6ae12265b95ae,64c7fed44a04f777bb1e18ce,64c800ef4456ba0ffa8da6aa,down,-1,0.75,0.1786,28,0,0.462,,,,,,254,0,254,0,1,,,,,
,,937547,001,2023-07-31_19h44.10.066,arm3_eps,2022.2.5,Win32,60.0240096,5f3d718e8de6ae12265b95ae,64c7fed44a04f777bb1e18ce,64c800ef4456ba0ffa8da6aa,right,-1,0.75,0.1786,28,0.010378909,0.946,,,,,,255,0,255,0,1,,,,,
,,937547,001,2023-07-31_19h44.10.066,arm3_eps,2022.2.5,Win32,60.0240096,5f3d718e8de6ae12265b95ae,64c7fed44a04f777bb1e18ce,64c800ef4456ba0ffa8da6aa,down,-1,0.75,0.1786,28,0,1.048,,,,,,256,0,256,0,1,,,,,
,,937547,001,2023-07-31_19h44.10.066,arm3_eps,2022.2.5,Win32,60.0240096,5f3d718e8de6ae12265b95ae,64c7fed44a04f777bb1e18ce,64c800ef4456ba0ffa8da6aa,right,-1,0.75,0.1786,28,-0.002579126,0.909,,,,,,257,0,257,0,1,,,,,
,,937547,001,2023-07-31_19h44.10.066,arm3_eps,2022.2.5,Win32,60.0240096,5f3d718e8de6ae12265b95ae,64c7fed44a04f777bb1e18ce,64c800ef4456ba0ffa8da6aa,up,-1,0.75,0.1786,27,0,0.58,,,,,,258,0,258,0,1,,,,,
,,937547,001,2023-07-31_19h44.10.066,arm3_eps,2022.2.5,Win32,60.0240096,5f3d718e8de6ae12265b95ae,64c7fed44a04f777bb1e18ce,64c800ef4456ba0ffa8da6aa,right,-1,0.75,0.1786,27,-0.030885525,0.729,,,,,,259,0,259,0,1,,,,,
,,937547,001,2023-07-31_19h44.10.066,arm3_eps,2022.2.5,Win32,60.0240096,5f3d718e8de6ae12265b95ae,64c7fed44a04f777bb1e18ce,64c800ef4456ba0ffa8da6aa,down,-1,0.75,0.1786,28,0,0.532,,,,,,260,0,260,0,1,,,,,
,,937547,001,2023-07-31_19h44.10.066,arm3_eps,2022.2.5,Win32,60.0240096,5f3d718e8de6ae12265b95ae,64c7fed44a04f777bb1e18ce,64c800ef4456ba0ffa8da6aa,right,-1,0.75,0.1786,28,-0.053492983,0.975,,,,,,261,0,261,0,1,,,,,
,,937547,001,2023-07-31_19h44.10.066,arm3_eps,2022.2.5,Win32,60.0240096,5f3d718e8de6ae12265b95ae,64c7fed44a04f777bb1e18ce,64c800ef4456ba0ffa8da6aa,down,1,0.75,0.1786,28,0,0.732,,,,,,262,0,262,0,1,,,,,
,,937547,001,2023-07-31_19h44.10.066,arm3_eps,2022.2.5,Win32,60.0240096,5f3d718e8de6ae12265b95ae,64c7fed44a04f777bb1e18ce,64c800ef4456ba0ffa8da6aa,right,1,0.75,0.1786,28,0.020869622,0.99,,,,,,263,0,263,0,1,,,,,
,,937547,001,2023-07-31_19h44.10.066,arm3_eps,2022.2.5,Win32,60.0240096,5f3d718e8de6ae12265b95ae,64c7fed44a04f777bb1e18ce,64c800ef4456ba0ffa8da6aa,down,1,0.75,0.1786,27,0,0.715,,,,,,264,0,264,0,1,,,,,
