space_bar.keys,space_bar.rt,participant,session,date,expName,psychopyVersion,OS,frameRate,PROLIFIC_PID,STUDY_ID,SESSION_ID,resp.keys,state,q_prob,eps_prob,score,price,resp.rt,train.thisRepN,train.thisTrialN,train.thisN,train.thisIndex,train.ran,steps.thisRepN,steps.thisTrialN,steps.thisN,steps.thisIndex,steps.ran,blocks.thisRepN,blocks.thisTrialN,blocks.thisN,blocks.thisIndex,blocks.ran
space,26.4411,942077,001,2023-07-31_20h46.56.892,arm3_eps,2022.2.5,Win32,60.20469597,615096da057ab02942bea00d,64c7fed44a04f777bb1e18ce,64c8012e3e455332383c34d9,,,,,,,,,,,,,,,,,,,,,,
space,4.2725,942077,001,2023-07-31_20h46.56.892,arm3_eps,2022.2.5,Win32,60.20469597,615096da057ab02942bea00d,64c7fed44a04f777bb1e18ce,64c8012e3e455332383c34d9,,,,,,,,,,,,,,,,,,,,,,
space,25.5367,942077,001,2023-07-31_20h46.56.892,arm3_eps,2022.2.5,Win32,60.20469597,615096da057ab02942bea00d,64c7fed44a04f777bb1e18ce,64c8012e3e455332383c34d9,,,,,,,,,,,,,,,,,,,,,,
space,19.5949,942077,001,2023-07-31_20h46.56.892,arm3_eps,2022.2.5,Win32,60.20469597,615096da057ab02942bea00d,64c7fed44a04f777bb1e18ce,64c8012e3e455332383c34d9,,,,,,,,,,,,,,,,,,,,,,
space,23.6429,942077,001,2023-07-31_20h46.56.892,arm3_eps,2022.2.5,Win32,60.20469597,615096da057ab02942bea00d,64c7fed44a04f777bb1e18ce,64c8012e3e455332383c34d9,,,,,,,,,,,,,,,,,,,,,,
space,9.348,942077,001,2023-07-31_20h46.56.892,arm3_eps,2022.2.5,Win32,60.20469597,615096da057ab02942bea00d,64c7fed44a04f777bb1e18ce,64c8012e3e455332383c34d9,,,,,,,,,,,,,,,,,,,,,,
space,1.6298,942077,001,2023-07-31_20h46.56.892,arm3_eps,2022.2.5,Win32,60.20469597,615096da057ab02942bea00d,64c7fed44a04f777bb1e18ce,64c8012e3e455332383c34d9,,,,,,,,,,,,,,,,,,,,,,
,,942077,001,2023-07-31_20h46.56.892,arm3_eps,2022.2.5,Win32,60.20469597,615096da057ab02942bea00d,64c7fed44a04f777bb1e18ce,64c8012e3e455332383c34d9,up,-1,1,0.2429,-1,0,3.3171,0,0,0,0,1,,,,,,,,,,
,,942077,001,2023-07-31_20h46.56.892,arm3_eps,2022.2.5,Win32,60.20469597,615096da057ab02942bea00d,64c7fed44a04f777bb1e18ce,64c8012e3e455332383c34d9,down,-1,1,0.2429,0,0,2.1425,1,0,1,0,1,,,,,,,,,,
,,942077,001,2023-07-31_20h46.56.892,arm3_eps,2022.2.5,Win32,60.20469597,615096da057ab02942bea00d,64c7fed44a04f777bb1e18ce,64c8012e3e455332383c34d9,down,1,1,0.2429,1,0,1.0949,2,0,2,0,1,,,,,,,,,,
,,942077,001,2023-07-31_20h46.56.892,arm3_eps,2022.2.5,Win32,60.20469597,615096da057ab02942bea00d,64c7fed44a04f777bb1e18ce,64c8012e3e455332383c34d9,up,1,1,0.2429,2,0,1.1403,3,0,3,0,1,,,,,,,,,,
,,942077,001,2023-07-31_20h46.56.892,arm3_eps,2022.2.5,Win32,60.20469597,615096da057ab02942bea00d,64c7fed44a04f777bb1e18ce,64c8012e3e455332383c34d9,right,1,1,0.2429,2,-0.001285096,3.1799,4,0,4,0,1,,,,,,,,,,
,,942077,001,2023-07-31_20h46.56.892,arm3_eps,2022.2.5,Win32,60.20469597,615096da057ab02942bea00d,64c7fed44a04f777bb1e18ce,64c8012e3e455332383c34d9,right,1,1,0.2429,2,-0.004877075,1.099,5,0,5,0,1,,,,,,,,,,
,,942077,001,2023-07-31_20h46.56.892,arm3_eps,2022.2.5,Win32,60.20469597,615096da057ab02942bea00d,64c7fed44a04f777bb1e18ce,64c8012e3e455332383c34d9,right,1,1,0.2429,2,-0.012343417,0.5982,6,0,6,0,1,,,,,,,,,,
,,942077,001,2023-07-31_20h46.56.892,arm3_eps,2022.2.5,Win32,60.20469597,615096da057ab02942bea00d,64c7fed44a04f777bb1e18ce,64c8012e3e455332383c34d9,right,1,1,0.2429,2,0.016340396,0.9896,7,0,7,0,1,,,,,,,,,,
,,942077,001,2023-07-31_20h46.56.892,arm3_eps,2022.2.5,Win32,60.20469597,615096da057ab02942bea00d,64c7fed44a04f777bb1e18ce,64c8012e3e455332383c34d9,right,1,1,0.2429,2,0.035238741,0.2833,8,0,8,0,1,,,,,,,,,,
,,942077,001,2023-07-31_20h46.56.892,arm3_eps,2022.2.5,Win32,60.20469597,615096da057ab02942bea00d,64c7fed44a04f777bb1e18ce,64c8012e3e455332383c34d9,right,1,1,0.2429,2,0.020167272,0.4074,9,0,9,0,1,,,,,,,,,,
,,942077,001,2023-07-31_20h46.56.892,arm3_eps,2022.2.5,Win32,60.20469597,615096da057ab02942bea00d,64c7fed44a04f777bb1e18ce,64c8012e3e455332383c34d9,right,1,1,0.2429,2,0.026875645,0.2762,10,0,10,0,1,,,,,,,,,,
,,942077,001,2023-07-31_20h46.56.892,arm3_eps,2022.2.5,Win32,60.20469597,615096da057ab02942bea00d,64c7fed44a04f777bb1e18ce,64c8012e3e455332383c34d9,right,1,1,0.2429,2,0.046918806,0.2024,11,0,11,0,1,,,,,,,,,,
,,942077,001,2023-07-31_20h46.56.892,arm3_eps,2022.2.5,Win32,60.20469597,615096da057ab02942bea00d,64c7fed44a04f777bb1e18ce,64c8012e3e455332383c34d9,right,1,1,0.2429,2,0.041499336,0.1689,12,0,12,0,1,,,,,,,,,,
,,942077,001,2023-07-31_20h46.56.892,arm3_eps,2022.2.5,Win32,60.20469597,615096da057ab02942bea00d,64c7fed44a04f777bb1e18ce,64c8012e3e455332383c34d9,right,1,1,0.2429,2,0.049284992,0.1523,13,0,13,0,1,,,,,,,,,,
,,942077,001,2023-07-31_20h46.56.892,arm3_eps,2022.2.5,Win32,60.20469597,615096da057ab02942bea00d,64c7fed44a04f777bb1e18ce,64c8012e3e455332383c34d9,up,1,1,0.2429,3,0,0.6377,14,0,14,0,1,,,,,,,,,,
,,942077,001,2023-07-31_20h46.56.892,arm3_eps,2022.2.5,Win32,60.20469597,615096da057ab02942bea00d,64c7fed44a04f777bb1e18ce,64c8012e3e455332383c34d9,right,1,1,0.2429,3,0.00314381,1.0511,15,0,15,0,1,,,,,,,,,,
,,942077,001,2023-07-31_20h46.56.892,arm3_eps,2022.2.5,Win32,60.20469597,615096da057ab02942bea00d,64c7fed44a04f777bb1e18ce,64c8012e3e455332383c34d9,right,1,1,0.2429,3,0.023559047,0.3661,16,0,16,0,1,,,,,,,,,,
,,942077,001,2023-07-31_20h46.56.892,arm3_eps,2022.2.5,Win32,60.20469597,615096da057ab02942bea00d,64c7fed44a04f777bb1e18ce,64c8012e3e455332383c34d9,right,1,1,0.2429,3,0.023921182,0.1336,17,0,17,0,1,,,,,,,,,,
,,942077,001,2023-07-31_20h46.56.892,arm3_eps,2022.2.5,Win32,60.20469597,615096da057ab02942bea00d,64c7fed44a04f777bb1e18ce,64c8012e3e455332383c34d9,right,1,1,0.2429,3,0.051880681,0.1404,18,0,18,0,1,,,,,,,,,,
,,942077,001,2023-07-31_20h46.56.892,arm3_eps,2022.2.5,Win32,60.20469597,615096da057ab02942bea00d,64c7fed44a04f777bb1e18ce,64c8012e3e455332383c34d9,right,1,1,0.2429,3,0.059761826,0.1672,19,0,19,0,1,,,,,,,,,,
,,942077,001,2023-07-31_20h46.56.892,arm3_eps,2022.2.5,Win32,60.20469597,615096da057ab02942bea00d,64c7fed44a04f777bb1e18ce,64c8012e3e455332383c34d9,right,1,1,0.2429,3,0.079363056,0.2555,20,0,20,0,1,,,,,,,,,,
,,942077,001,2023-07-31_20h46.56.892,arm3_eps,2022.2.5,Win32,60.20469597,615096da057ab02942bea00d,64c7fed44a04f777bb1e18ce,64c8012e3e455332383c34d9,up,-1,1,0.2429,4,0,0.8835,21,0,21,0,1,,,,,,,,,,
,,942077,001,2023-07-31_20h46.56.892,arm3_eps,2022.2.5,Win32,60.20469597,615096da057ab02942bea00d,64c7fed44a04f777bb1e18ce,64c8012e3e455332383c34d9,right,-1,1,0.2429,4,-0.014351112,0.8113,22,0,22,0,1,,,,,,,,,,
,,942077,001,2023-07-31_20h46.56.892,arm3_eps,2022.2.5,Win32,60.20469597,615096da057ab02942bea00d,64c7fed44a04f777bb1e18ce,64c8012e3e455332383c34d9,right,-1,1,0.2429,4,-0.031877833,0.121,23,0,23,0,1,,,,,,,,,,
,,942077,001,2023-07-31_20h46.56.892,arm3_eps,2022.2.5,Win32,60.20469597,615096da057ab02942bea00d,64c7fed44a04f777bb1e18ce,64c8012e3e455332383c34d9,right,-1,1,0.2429,4,-0.046971092,0.1335,24,0,24,0,1,,,,,,,,,,
,,942077,001,2023-07-31_20h46.56.892,arm3_eps,2022.2.5,Win32,60.20469597,615096da057ab02942bea00d,64c7fed44a04f777bb1e18ce,64c8012e3e455332383c34d9,right,-1,1,0.2429,4,-0.060468626,0.0993,25,0,25,0,1,,,,,,,,,,
,,942077,001,2023-07-31_20h46.56.892,arm3_eps,2022.2.5,Win32,60.20469597,615096da057ab02942bea00d,64c7fed44a04f777bb1e18ce,64c8012e3e455332383c34d9,right,-1,1,0.2429,4,-0.051961921,0.1684,26,0,26,0,1,,,,,,,,,,
,,942077,001,2023-07-31_20h46.56.892,arm3_eps,2022.2.5,Win32,60.20469597,615096da057ab02942bea00d,64c7fed44a04f777bb1e18ce,64c8012e3e455332383c34d9,right,-1,1,0.2429,4,-0.070980075,0.1313,27,0,27,0,1,,,,,,,,,,
,,942077,001,2023-07-31_20h46.56.892,arm3_eps,2022.2.5,Win32,60.20469597,615096da057ab02942bea00d,64c7fed44a04f777bb1e18ce,64c8012e3e455332383c34d9,right,-1,1,0.2429,4,-0.094298124,0.1661,28,0,28,0,1,,,,,,,,,,
,,942077,001,2023-07-31_20h46.56.892,arm3_eps,2022.2.5,Win32,60.20469597,615096da057ab02942bea00d,64c7fed44a04f777bb1e18ce,64c8012e3e455332383c34d9,right,-1,1,0.2429,4,-0.102587562,0.0993,29,0,29,0,1,,,,,,,,,,
,,942077,001,2023-07-31_20h46.56.892,arm3_eps,2022.2.5,Win32,60.20469597,615096da057ab02942bea00d,64c7fed44a04f777bb1e18ce,64c8012e3e455332383c34d9,down,-1,1,0.2429,5,0,0.219,30,0,30,0,1,,,,,,,,,,
,,942077,001,2023-07-31_20h46.56.892,arm3_eps,2022.2.5,Win32,60.20469597,615096da057ab02942bea00d,64c7fed44a04f777bb1e18ce,64c8012e3e455332383c34d9,right,-1,1,0.2429,5,-0.01695575,2.4099,31,0,31,0,1,,,,,,,,,,
,,942077,001,2023-07-31_20h46.56.892,arm3_eps,2022.2.5,Win32,60.20469597,615096da057ab02942bea00d,64c7fed44a04f777bb1e18ce,64c8012e3e455332383c34d9,right,-1,1,0.2429,5,-0.036456401,0.1179,32,0,32,0,1,,,,,,,,,,
,,942077,001,2023-07-31_20h46.56.892,arm3_eps,2022.2.5,Win32,60.20469597,615096da057ab02942bea00d,64c7fed44a04f777bb1e18ce,64c8012e3e455332383c34d9,right,-1,1,0.2429,5,-0.036060673,0.1168,33,0,33,0,1,,,,,,,,,,
,,942077,001,2023-07-31_20h46.56.892,arm3_eps,2022.2.5,Win32,60.20469597,615096da057ab02942bea00d,64c7fed44a04f777bb1e18ce,64c8012e3e455332383c34d9,right,-1,1,0.2429,5,-0.058888828,0.1332,34,0,34,0,1,,,,,,,,,,
,,942077,001,2023-07-31_20h46.56.892,arm3_eps,2022.2.5,Win32,60.20469597,615096da057ab02942bea00d,64c7fed44a04f777bb1e18ce,64c8012e3e455332383c34d9,right,-1,1,0.2429,5,-0.079275585,0.1329,35,0,35,0,1,,,,,,,,,,
,,942077,001,2023-07-31_20h46.56.892,arm3_eps,2022.2.5,Win32,60.20469597,615096da057ab02942bea00d,64c7fed44a04f777bb1e18ce,64c8012e3e455332383c34d9,right,-1,1,0.2429,5,-0.083443546,0.1359,36,0,36,0,1,,,,,,,,,,
,,942077,001,2023-07-31_20h46.56.892,arm3_eps,2022.2.5,Win32,60.20469597,615096da057ab02942bea00d,64c7fed44a04f777bb1e18ce,64c8012e3e455332383c34d9,right,-1,1,0.2429,5,-0.110723149,0.1211,37,0,37,0,1,,,,,,,,,,
,,942077,001,2023-07-31_20h46.56.892,arm3_eps,2022.2.5,Win32,60.20469597,615096da057ab02942bea00d,64c7fed44a04f777bb1e18ce,64c8012e3e455332383c34d9,down,1,1,0.2429,6,0,0.1508,38,0,38,0,1,,,,,,,,,,
,,942077,001,2023-07-31_20h46.56.892,arm3_eps,2022.2.5,Win32,60.20469597,615096da057ab02942bea00d,64c7fed44a04f777bb1e18ce,64c8012e3e455332383c34d9,right,1,1,0.2429,6,-0.010809414,0.3329,39,0,39,0,1,,,,,,,,,,
,,942077,001,2023-07-31_20h46.56.892,arm3_eps,2022.2.5,Win32,60.20469597,615096da057ab02942bea00d,64c7fed44a04f777bb1e18ce,64c8012e3e455332383c34d9,right,1,1,0.2429,6,-0.018415676,0.0839,40,0,40,0,1,,,,,,,,,,
,,942077,001,2023-07-31_20h46.56.892,arm3_eps,2022.2.5,Win32,60.20469597,615096da057ab02942bea00d,64c7fed44a04f777bb1e18ce,64c8012e3e455332383c34d9,right,1,1,0.2429,6,-0.023942539,0.317,41,0,41,0,1,,,,,,,,,,
,,942077,001,2023-07-31_20h46.56.892,arm3_eps,2022.2.5,Win32,60.20469597,615096da057ab02942bea00d,64c7fed44a04f777bb1e18ce,64c8012e3e455332383c34d9,right,1,1,0.2429,6,0.002010089,0.106,42,0,42,0,1,,,,,,,,,,
,,942077,001,2023-07-31_20h46.56.892,arm3_eps,2022.2.5,Win32,60.20469597,615096da057ab02942bea00d,64c7fed44a04f777bb1e18ce,64c8012e3e455332383c34d9,right,1,1,0.2429,6,0.02025793,0.1334,43,0,43,0,1,,,,,,,,,,
,,942077,001,2023-07-31_20h46.56.892,arm3_eps,2022.2.5,Win32,60.20469597,615096da057ab02942bea00d,64c7fed44a04f777bb1e18ce,64c8012e3e455332383c34d9,right,1,1,0.2429,6,0.02729571,0.132,44,0,44,0,1,,,,,,,,,,
,,942077,001,2023-07-31_20h46.56.892,arm3_eps,2022.2.5,Win32,60.20469597,615096da057ab02942bea00d,64c7fed44a04f777bb1e18ce,64c8012e3e455332383c34d9,right,1,1,0.2429,6,0.048565539,0.1371,45,0,45,0,1,,,,,,,,,,
,,942077,001,2023-07-31_20h46.56.892,arm3_eps,2022.2.5,Win32,60.20469597,615096da057ab02942bea00d,64c7fed44a04f777bb1e18ce,64c8012e3e455332383c34d9,right,1,1,0.2429,6,0.065708587,0.1507,46,0,46,0,1,,,,,,,,,,
,,942077,001,2023-07-31_20h46.56.892,arm3_eps,2022.2.5,Win32,60.20469597,615096da057ab02942bea00d,64c7fed44a04f777bb1e18ce,64c8012e3e455332383c34d9,right,1,1,0.2429,6,0.079961179,0.085,47,0,47,0,1,,,,,,,,,,
,,942077,001,2023-07-31_20h46.56.892,arm3_eps,2022.2.5,Win32,60.20469597,615096da057ab02942bea00d,64c7fed44a04f777bb1e18ce,64c8012e3e455332383c34d9,up,1,1,0.2429,7,0,0.1823,48,0,48,0,1,,,,,,,,,,
,,942077,001,2023-07-31_20h46.56.892,arm3_eps,2022.2.5,Win32,60.20469597,615096da057ab02942bea00d,64c7fed44a04f777bb1e18ce,64c8012e3e455332383c34d9,right,1,1,0.2429,7,-0.002953961,0.3109,49,0,49,0,1,,,,,,,,,,
space,19.1224,942077,001,2023-07-31_20h46.56.892,arm3_eps,2022.2.5,Win32,60.20469597,615096da057ab02942bea00d,64c7fed44a04f777bb1e18ce,64c8012e3e455332383c34d9,,,,,,,,,,,,,,,,,,,,,,
space,13.2318,942077,001,2023-07-31_20h46.56.892,arm3_eps,2022.2.5,Win32,60.20469597,615096da057ab02942bea00d,64c7fed44a04f777bb1e18ce,64c8012e3e455332383c34d9,,,,,,,,,,,,,,,,,,,,,,
space,13.0338,942077,001,2023-07-31_20h46.56.892,arm3_eps,2022.2.5,Win32,60.20469597,615096da057ab02942bea00d,64c7fed44a04f777bb1e18ce,64c8012e3e455332383c34d9,,,,,,,,,,,,,,,,,,,,,,
space,6.7224,942077,001,2023-07-31_20h46.56.892,arm3_eps,2022.2.5,Win32,60.20469597,615096da057ab02942bea00d,64c7fed44a04f777bb1e18ce,64c8012e3e455332383c34d9,,,,,,,,,,,,,,,,,,,,,,
space,7.0378,942077,001,2023-07-31_20h46.56.892,arm3_eps,2022.2.5,Win32,60.20469597,615096da057ab02942bea00d,64c7fed44a04f777bb1e18ce,64c8012e3e455332383c34d9,,,,,,,,,,,,,,,,,,,,,,
space,1.4883,942077,001,2023-07-31_20h46.56.892,arm3_eps,2022.2.5,Win32,60.20469597,615096da057ab02942bea00d,64c7fed44a04f777bb1e18ce,64c8012e3e455332383c34d9,,,,,,,,,,,,,,,,,,,,,,
,,942077,001,2023-07-31_20h46.56.892,arm3_eps,2022.2.5,Win32,60.20469597,615096da057ab02942bea00d,64c7fed44a04f777bb1e18ce,64c8012e3e455332383c34d9,right,1,0.75,0.2429,0,0.006675533,1.8,0,0,0,0,1,,,,,,,,,,
,,942077,001,2023-07-31_20h46.56.892,arm3_eps,2022.2.5,Win32,60.20469597,615096da057ab02942bea00d,64c7fed44a04f777bb1e18ce,64c8012e3e455332383c34d9,right,1,0.75,0.2429,0,0.006834171,1.433,1,0,1,0,1,,,,,,,,,,
,,942077,001,2023-07-31_20h46.56.892,arm3_eps,2022.2.5,Win32,60.20469597,615096da057ab02942bea00d,64c7fed44a04f777bb1e18ce,64c8012e3e455332383c34d9,right,1,0.75,0.2429,0,0.07065977,0.6386,2,0,2,0,1,,,,,,,,,,
,,942077,001,2023-07-31_20h46.56.892,arm3_eps,2022.2.5,Win32,60.20469597,615096da057ab02942bea00d,64c7fed44a04f777bb1e18ce,64c8012e3e455332383c34d9,right,1,0.75,0.2429,0,0.105237766,0.838,3,0,3,0,1,,,,,,,,,,
,,942077,001,2023-07-31_20h46.56.892,arm3_eps,2022.2.5,Win32,60.20469597,615096da057ab02942bea00d,64c7fed44a04f777bb1e18ce,64c8012e3e455332383c34d9,right,1,0.75,0.2429,0,0.09570694,0.7173,4,0,4,0,1,,,,,,,,,,
,,942077,001,2023-07-31_20h46.56.892,arm3_eps,2022.2.5,Win32,60.20469597,615096da057ab02942bea00d,64c7fed44a04f777bb1e18ce,64c8012e3e455332383c34d9,down,1,0.75,0.2429,-1,0,0.8836,5,0,5,0,1,,,,,,,,,,
,,942077,001,2023-07-31_20h46.56.892,arm3_eps,2022.2.5,Win32,60.20469597,615096da057ab02942bea00d,64c7fed44a04f777bb1e18ce,64c8012e3e455332383c34d9,right,1,0.75,0.2429,-1,0.026408632,1.7006,6,0,6,0,1,,,,,,,,,,
,,942077,001,2023-07-31_20h46.56.892,arm3_eps,2022.2.5,Win32,60.20469597,615096da057ab02942bea00d,64c7fed44a04f777bb1e18ce,64c8012e3e455332383c34d9,right,1,0.75,0.2429,-1,0.015352677,0.8863,7,0,7,0,1,,,,,,,,,,
,,942077,001,2023-07-31_20h46.56.892,arm3_eps,2022.2.5,Win32,60.20469597,615096da057ab02942bea00d,64c7fed44a04f777bb1e18ce,64c8012e3e455332383c34d9,up,1,0.75,0.2429,0,0,0.8008,8,0,8,0,1,,,,,,,,,,
,,942077,001,2023-07-31_20h46.56.892,arm3_eps,2022.2.5,Win32,60.20469597,615096da057ab02942bea00d,64c7fed44a04f777bb1e18ce,64c8012e3e455332383c34d9,up,1,0.75,0.2429,1,0,1.4332,9,0,9,0,1,,,,,,,,,,
,,942077,001,2023-07-31_20h46.56.892,arm3_eps,2022.2.5,Win32,60.20469597,615096da057ab02942bea00d,64c7fed44a04f777bb1e18ce,64c8012e3e455332383c34d9,down,1,0.75,0.2429,0,0,1.4998,10,0,10,0,1,,,,,,,,,,
,,942077,001,2023-07-31_20h46.56.892,arm3_eps,2022.2.5,Win32,60.20469597,615096da057ab02942bea00d,64c7fed44a04f777bb1e18ce,64c8012e3e455332383c34d9,right,1,0.75,0.2429,0,-0.006234912,1.3071,11,0,11,0,1,,,,,,,,,,
,,942077,001,2023-07-31_20h46.56.892,arm3_eps,2022.2.5,Win32,60.20469597,615096da057ab02942bea00d,64c7fed44a04f777bb1e18ce,64c8012e3e455332383c34d9,right,1,0.75,0.2429,0,-0.021016062,0.3924,12,0,12,0,1,,,,,,,,,,
,,942077,001,2023-07-31_20h46.56.892,arm3_eps,2022.2.5,Win32,60.20469597,615096da057ab02942bea00d,64c7fed44a04f777bb1e18ce,64c8012e3e455332383c34d9,down,1,0.75,0.2429,-1,0,0.5064,13,0,13,0,1,,,,,,,,,,
,,942077,001,2023-07-31_20h46.56.892,arm3_eps,2022.2.5,Win32,60.20469597,615096da057ab02942bea00d,64c7fed44a04f777bb1e18ce,64c8012e3e455332383c34d9,right,1,0.75,0.2429,-1,0.016314284,1.0669,14,0,14,0,1,,,,,,,,,,
,,942077,001,2023-07-31_20h46.56.892,arm3_eps,2022.2.5,Win32,60.20469597,615096da057ab02942bea00d,64c7fed44a04f777bb1e18ce,64c8012e3e455332383c34d9,right,1,0.75,0.2429,-1,0.045519284,0.4313,15,0,15,0,1,,,,,,,,,,
,,942077,001,2023-07-31_20h46.56.892,arm3_eps,2022.2.5,Win32,60.20469597,615096da057ab02942bea00d,64c7fed44a04f777bb1e18ce,64c8012e3e455332383c34d9,up,-1,0.75,0.2429,0,0,0.4504,16,0,16,0,1,,,,,,,,,,
,,942077,001,2023-07-31_20h46.56.892,arm3_eps,2022.2.5,Win32,60.20469597,615096da057ab02942bea00d,64c7fed44a04f777bb1e18ce,64c8012e3e455332383c34d9,right,-1,0.75,0.2429,0,0.004716135,2.0333,17,0,17,0,1,,,,,,,,,,
,,942077,001,2023-07-31_20h46.56.892,arm3_eps,2022.2.5,Win32,60.20469597,615096da057ab02942bea00d,64c7fed44a04f777bb1e18ce,64c8012e3e455332383c34d9,right,-1,0.75,0.2429,0,-0.001629843,0.3668,18,0,18,0,1,,,,,,,,,,
,,942077,001,2023-07-31_20h46.56.892,arm3_eps,2022.2.5,Win32,60.20469597,615096da057ab02942bea00d,64c7fed44a04f777bb1e18ce,64c8012e3e455332383c34d9,right,-1,0.75,0.2429,0,-0.006272595,0.3175,19,0,19,0,1,,,,,,,,,,
,,942077,001,2023-07-31_20h46.56.892,arm3_eps,2022.2.5,Win32,60.20469597,615096da057ab02942bea00d,64c7fed44a04f777bb1e18ce,64c8012e3e455332383c34d9,down,-1,0.75,0.2429,1,0,0.8669,20,0,20,0,1,,,,,,,,,,
,,942077,001,2023-07-31_20h46.56.892,arm3_eps,2022.2.5,Win32,60.20469597,615096da057ab02942bea00d,64c7fed44a04f777bb1e18ce,64c8012e3e455332383c34d9,right,-1,0.75,0.2429,1,-0.001911632,1.5233,21,0,21,0,1,,,,,,,,,,
,,942077,001,2023-07-31_20h46.56.892,arm3_eps,2022.2.5,Win32,60.20469597,615096da057ab02942bea00d,64c7fed44a04f777bb1e18ce,64c8012e3e455332383c34d9,down,1,0.75,0.2429,2,0,0.6669,22,0,22,0,1,,,,,,,,,,
,,942077,001,2023-07-31_20h46.56.892,arm3_eps,2022.2.5,Win32,60.20469597,615096da057ab02942bea00d,64c7fed44a04f777bb1e18ce,64c8012e3e455332383c34d9,right,1,0.75,0.2429,2,-0.010468851,0.9681,23,0,23,0,1,,,,,,,,,,
,,942077,001,2023-07-31_20h46.56.892,arm3_eps,2022.2.5,Win32,60.20469597,615096da057ab02942bea00d,64c7fed44a04f777bb1e18ce,64c8012e3e455332383c34d9,right,1,0.75,0.2429,2,0.004330496,0.7835,24,0,24,0,1,,,,,,,,,,
,,942077,001,2023-07-31_20h46.56.892,arm3_eps,2022.2.5,Win32,60.20469597,615096da057ab02942bea00d,64c7fed44a04f777bb1e18ce,64c8012e3e455332383c34d9,up,-1,0.75,0.2429,2,0,0.5667,25,0,25,0,1,,,,,,,,,,
,,942077,001,2023-07-31_20h46.56.892,arm3_eps,2022.2.5,Win32,60.20469597,615096da057ab02942bea00d,64c7fed44a04f777bb1e18ce,64c8012e3e455332383c34d9,down,-1,0.75,0.2429,2,0,1.8163,26,0,26,0,1,,,,,,,,,,
,,942077,001,2023-07-31_20h46.56.892,arm3_eps,2022.2.5,Win32,60.20469597,615096da057ab02942bea00d,64c7fed44a04f777bb1e18ce,64c8012e3e455332383c34d9,down,-1,0.75,0.2429,2,0,2.3331,27,0,27,0,1,,,,,,,,,,
,,942077,001,2023-07-31_20h46.56.892,arm3_eps,2022.2.5,Win32,60.20469597,615096da057ab02942bea00d,64c7fed44a04f777bb1e18ce,64c8012e3e455332383c34d9,up,1,0.75,0.2429,2,0,1.1837,28,0,28,0,1,,,,,,,,,,
,,942077,001,2023-07-31_20h46.56.892,arm3_eps,2022.2.5,Win32,60.20469597,615096da057ab02942bea00d,64c7fed44a04f777bb1e18ce,64c8012e3e455332383c34d9,right,1,0.75,0.2429,2,0.004476673,0.8511,29,0,29,0,1,,,,,,,,,,
,,942077,001,2023-07-31_20h46.56.892,arm3_eps,2022.2.5,Win32,60.20469597,615096da057ab02942bea00d,64c7fed44a04f777bb1e18ce,64c8012e3e455332383c34d9,right,1,0.75,0.2429,2,0.000610423,0.222,30,0,30,0,1,,,,,,,,,,
,,942077,001,2023-07-31_20h46.56.892,arm3_eps,2022.2.5,Win32,60.20469597,615096da057ab02942bea00d,64c7fed44a04f777bb1e18ce,64c8012e3e455332383c34d9,up,1,0.75,0.2429,3,0,0.4836,31,0,31,0,1,,,,,,,,,,
,,942077,001,2023-07-31_20h46.56.892,arm3_eps,2022.2.5,Win32,60.20469597,615096da057ab02942bea00d,64c7fed44a04f777bb1e18ce,64c8012e3e455332383c34d9,right,1,0.75,0.2429,3,-0.01642232,1.9206,32,0,32,0,1,,,,,,,,,,
,,942077,001,2023-07-31_20h46.56.892,arm3_eps,2022.2.5,Win32,60.20469597,615096da057ab02942bea00d,64c7fed44a04f777bb1e18ce,64c8012e3e455332383c34d9,up,1,0.75,0.2429,4,0,0.7505,33,0,33,0,1,,,,,,,,,,
,,942077,001,2023-07-31_20h46.56.892,arm3_eps,2022.2.5,Win32,60.20469597,615096da057ab02942bea00d,64c7fed44a04f777bb1e18ce,64c8012e3e455332383c34d9,right,1,0.75,0.2429,4,0.008186198,0.987,34,0,34,0,1,,,,,,,,,,
,,942077,001,2023-07-31_20h46.56.892,arm3_eps,2022.2.5,Win32,60.20469597,615096da057ab02942bea00d,64c7fed44a04f777bb1e18ce,64c8012e3e455332383c34d9,right,1,0.75,0.2429,4,0.019608586,0.5063,35,0,35,0,1,,,,,,,,,,
,,942077,001,2023-07-31_20h46.56.892,arm3_eps,2022.2.5,Win32,60.20469597,615096da057ab02942bea00d,64c7fed44a04f777bb1e18ce,64c8012e3e455332383c34d9,up,-1,0.75,0.2429,4,0,0.4235,36,0,36,0,1,,,,,,,,,,
,,942077,001,2023-07-31_20h46.56.892,arm3_eps,2022.2.5,Win32,60.20469597,615096da057ab02942bea00d,64c7fed44a04f777bb1e18ce,64c8012e3e455332383c34d9,right,-1,0.75,0.2429,4,-0.004403691,1.5005,37,0,37,0,1,,,,,,,,,,
,,942077,001,2023-07-31_20h46.56.892,arm3_eps,2022.2.5,Win32,60.20469597,615096da057ab02942bea00d,64c7fed44a04f777bb1e18ce,64c8012e3e455332383c34d9,down,-1,0.75,0.2429,5,0,0.3675,38,0,38,0,1,,,,,,,,,,
,,942077,001,2023-07-31_20h46.56.892,arm3_eps,2022.2.5,Win32,60.20469597,615096da057ab02942bea00d,64c7fed44a04f777bb1e18ce,64c8012e3e455332383c34d9,down,-1,0.75,0.2429,5,0,1.1173,39,0,39,0,1,,,,,,,,,,
,,942077,001,2023-07-31_20h46.56.892,arm3_eps,2022.2.5,Win32,60.20469597,615096da057ab02942bea00d,64c7fed44a04f777bb1e18ce,64c8012e3e455332383c34d9,right,-1,0.75,0.2429,5,-0.01028256,1.0835,40,0,40,0,1,,,,,,,,,,
,,942077,001,2023-07-31_20h46.56.892,arm3_eps,2022.2.5,Win32,60.20469597,615096da057ab02942bea00d,64c7fed44a04f777bb1e18ce,64c8012e3e455332383c34d9,down,1,0.75,0.2429,6,0,0.6341,41,0,41,0,1,,,,,,,,,,
,,942077,001,2023-07-31_20h46.56.892,arm3_eps,2022.2.5,Win32,60.20469597,615096da057ab02942bea00d,64c7fed44a04f777bb1e18ce,64c8012e3e455332383c34d9,right,1,0.75,0.2429,6,0.000557007,1.3426,42,0,42,0,1,,,,,,,,,,
,,942077,001,2023-07-31_20h46.56.892,arm3_eps,2022.2.5,Win32,60.20469597,615096da057ab02942bea00d,64c7fed44a04f777bb1e18ce,64c8012e3e455332383c34d9,up,1,0.75,0.2429,7,0,0.6511,43,0,43,0,1,,,,,,,,,,
,,942077,001,2023-07-31_20h46.56.892,arm3_eps,2022.2.5,Win32,60.20469597,615096da057ab02942bea00d,64c7fed44a04f777bb1e18ce,64c8012e3e455332383c34d9,right,1,0.75,0.2429,7,-0.002219167,1.0466,44,0,44,0,1,,,,,,,,,,
,,942077,001,2023-07-31_20h46.56.892,arm3_eps,2022.2.5,Win32,60.20469597,615096da057ab02942bea00d,64c7fed44a04f777bb1e18ce,64c8012e3e455332383c34d9,up,-1,0.75,0.2429,8,0,0.6552,45,0,45,0,1,,,,,,,,,,
,,942077,001,2023-07-31_20h46.56.892,arm3_eps,2022.2.5,Win32,60.20469597,615096da057ab02942bea00d,64c7fed44a04f777bb1e18ce,64c8012e3e455332383c34d9,down,-1,0.75,0.2429,9,0,0.0272,46,0,46,0,1,,,,,,,,,,
,,942077,001,2023-07-31_20h46.56.892,arm3_eps,2022.2.5,Win32,60.20469597,615096da057ab02942bea00d,64c7fed44a04f777bb1e18ce,64c8012e3e455332383c34d9,right,-1,0.75,0.2429,9,-0.027069171,1.5211,47,0,47,0,1,,,,,,,,,,
,,942077,001,2023-07-31_20h46.56.892,arm3_eps,2022.2.5,Win32,60.20469597,615096da057ab02942bea00d,64c7fed44a04f777bb1e18ce,64c8012e3e455332383c34d9,down,1,0.75,0.2429,10,0,0.3568,48,0,48,0,1,,,,,,,,,,
,,942077,001,2023-07-31_20h46.56.892,arm3_eps,2022.2.5,Win32,60.20469597,615096da057ab02942bea00d,64c7fed44a04f777bb1e18ce,64c8012e3e455332383c34d9,up,1,0.75,0.2429,10,0,1.685,49,0,49,0,1,,,,,,,,,,
space,13.8693,942077,001,2023-07-31_20h46.56.892,arm3_eps,2022.2.5,Win32,60.20469597,615096da057ab02942bea00d,64c7fed44a04f777bb1e18ce,64c8012e3e455332383c34d9,,,,,,,,,,,,,,,,,,,,,,
space,21.312,942077,001,2023-07-31_20h46.56.892,arm3_eps,2022.2.5,Win32,60.20469597,615096da057ab02942bea00d,64c7fed44a04f777bb1e18ce,64c8012e3e455332383c34d9,,,,,,,,,,,,,,,,,,,,,,
space,0.8646,942077,001,2023-07-31_20h46.56.892,arm3_eps,2022.2.5,Win32,60.20469597,615096da057ab02942bea00d,64c7fed44a04f777bb1e18ce,64c8012e3e455332383c34d9,,,,,,,,,,,,,,,,,,,,,,
,,942077,001,2023-07-31_20h46.56.892,arm3_eps,2022.2.5,Win32,60.20469597,615096da057ab02942bea00d,64c7fed44a04f777bb1e18ce,64c8012e3e455332383c34d9,up,1,0.75,0.05,1,0,1.506,0,0,0,0,1,,,,,,,,,,
,,942077,001,2023-07-31_20h46.56.892,arm3_eps,2022.2.5,Win32,60.20469597,615096da057ab02942bea00d,64c7fed44a04f777bb1e18ce,64c8012e3e455332383c34d9,up,1,0.75,0.05,2,0,1.6759,1,0,1,0,1,,,,,,,,,,
,,942077,001,2023-07-31_20h46.56.892,arm3_eps,2022.2.5,Win32,60.20469597,615096da057ab02942bea00d,64c7fed44a04f777bb1e18ce,64c8012e3e455332383c34d9,up,1,0.75,0.05,2,0,1.4477,2,0,2,0,1,,,,,,,,,,
,,942077,001,2023-07-31_20h46.56.892,arm3_eps,2022.2.5,Win32,60.20469597,615096da057ab02942bea00d,64c7fed44a04f777bb1e18ce,64c8012e3e455332383c34d9,down,1,0.75,0.05,1,0,2.215,3,0,3,0,1,,,,,,,,,,
,,942077,001,2023-07-31_20h46.56.892,arm3_eps,2022.2.5,Win32,60.20469597,615096da057ab02942bea00d,64c7fed44a04f777bb1e18ce,64c8012e3e455332383c34d9,right,1,0.75,0.05,1,0.012433429,1.0981,4,0,4,0,1,,,,,,,,,,
,,942077,001,2023-07-31_20h46.56.892,arm3_eps,2022.2.5,Win32,60.20469597,615096da057ab02942bea00d,64c7fed44a04f777bb1e18ce,64c8012e3e455332383c34d9,right,1,0.75,0.05,1,0.001168779,0.6638,5,0,5,0,1,,,,,,,,,,
,,942077,001,2023-07-31_20h46.56.892,arm3_eps,2022.2.5,Win32,60.20469597,615096da057ab02942bea00d,64c7fed44a04f777bb1e18ce,64c8012e3e455332383c34d9,up,1,0.75,0.05,2,0,0.7346,6,0,6,0,1,,,,,,,,,,
,,942077,001,2023-07-31_20h46.56.892,arm3_eps,2022.2.5,Win32,60.20469597,615096da057ab02942bea00d,64c7fed44a04f777bb1e18ce,64c8012e3e455332383c34d9,up,1,0.75,0.05,2,0,1.6323,7,0,7,0,1,,,,,,,,,,
,,942077,001,2023-07-31_20h46.56.892,arm3_eps,2022.2.5,Win32,60.20469597,615096da057ab02942bea00d,64c7fed44a04f777bb1e18ce,64c8012e3e455332383c34d9,right,1,0.75,0.05,2,0.031724879,1.0274,8,0,8,0,1,,,,,,,,,,
,,942077,001,2023-07-31_20h46.56.892,arm3_eps,2022.2.5,Win32,60.20469597,615096da057ab02942bea00d,64c7fed44a04f777bb1e18ce,64c8012e3e455332383c34d9,right,1,0.75,0.05,2,0.039197658,0.3384,9,0,9,0,1,,,,,,,,,,
,,942077,001,2023-07-31_20h46.56.892,arm3_eps,2022.2.5,Win32,60.20469597,615096da057ab02942bea00d,64c7fed44a04f777bb1e18ce,64c8012e3e455332383c34d9,right,1,0.75,0.05,2,0.024060755,0.3891,10,0,10,0,1,,,,,,,,,,
,,942077,001,2023-07-31_20h46.56.892,arm3_eps,2022.2.5,Win32,60.20469597,615096da057ab02942bea00d,64c7fed44a04f777bb1e18ce,64c8012e3e455332383c34d9,right,1,0.75,0.05,2,0.039837969,0.1947,11,0,11,0,1,,,,,,,,,,
,,942077,001,2023-07-31_20h46.56.892,arm3_eps,2022.2.5,Win32,60.20469597,615096da057ab02942bea00d,64c7fed44a04f777bb1e18ce,64c8012e3e455332383c34d9,up,1,0.75,0.05,2,0,0.4513,12,0,12,0,1,,,,,,,,,,
,,942077,001,2023-07-31_20h46.56.892,arm3_eps,2022.2.5,Win32,60.20469597,615096da057ab02942bea00d,64c7fed44a04f777bb1e18ce,64c8012e3e455332383c34d9,right,1,0.75,0.05,2,0.017510847,1.0473,13,0,13,0,1,,,,,,,,,,
,,942077,001,2023-07-31_20h46.56.892,arm3_eps,2022.2.5,Win32,60.20469597,615096da057ab02942bea00d,64c7fed44a04f777bb1e18ce,64c8012e3e455332383c34d9,up,1,0.75,0.05,3,0,0.6822,14,0,14,0,1,,,,,,,,,,
,,942077,001,2023-07-31_20h46.56.892,arm3_eps,2022.2.5,Win32,60.20469597,615096da057ab02942bea00d,64c7fed44a04f777bb1e18ce,64c8012e3e455332383c34d9,up,1,0.75,0.05,4,0,1.9384,15,0,15,0,1,,,,,,,,,,
,,942077,001,2023-07-31_20h46.56.892,arm3_eps,2022.2.5,Win32,60.20469597,615096da057ab02942bea00d,64c7fed44a04f777bb1e18ce,64c8012e3e455332383c34d9,up,1,0.75,0.05,4,0,1.4916,16,0,16,0,1,,,,,,,,,,
,,942077,001,2023-07-31_20h46.56.892,arm3_eps,2022.2.5,Win32,60.20469597,615096da057ab02942bea00d,64c7fed44a04f777bb1e18ce,64c8012e3e455332383c34d9,right,1,0.75,0.05,4,-0.006058856,1.6513,17,0,17,0,1,,,,,,,,,,
,,942077,001,2023-07-31_20h46.56.892,arm3_eps,2022.2.5,Win32,60.20469597,615096da057ab02942bea00d,64c7fed44a04f777bb1e18ce,64c8012e3e455332383c34d9,right,1,0.75,0.05,4,-0.008675567,0.315,18,0,18,0,1,,,,,,,,,,
,,942077,001,2023-07-31_20h46.56.892,arm3_eps,2022.2.5,Win32,60.20469597,615096da057ab02942bea00d,64c7fed44a04f777bb1e18ce,64c8012e3e455332383c34d9,up,1,0.75,0.05,5,0,0.5537,19,0,19,0,1,,,,,,,,,,
,,942077,001,2023-07-31_20h46.56.892,arm3_eps,2022.2.5,Win32,60.20469597,615096da057ab02942bea00d,64c7fed44a04f777bb1e18ce,64c8012e3e455332383c34d9,up,1,0.75,0.05,6,0,1.4115,20,0,20,0,1,,,,,,,,,,
,,942077,001,2023-07-31_20h46.56.892,arm3_eps,2022.2.5,Win32,60.20469597,615096da057ab02942bea00d,64c7fed44a04f777bb1e18ce,64c8012e3e455332383c34d9,right,1,0.75,0.05,6,0.002119244,1.4262,21,0,21,0,1,,,,,,,,,,
,,942077,001,2023-07-31_20h46.56.892,arm3_eps,2022.2.5,Win32,60.20469597,615096da057ab02942bea00d,64c7fed44a04f777bb1e18ce,64c8012e3e455332383c34d9,right,1,0.75,0.05,6,8.9549E-05,0.2127,22,0,22,0,1,,,,,,,,,,
,,942077,001,2023-07-31_20h46.56.892,arm3_eps,2022.2.5,Win32,60.20469597,615096da057ab02942bea00d,64c7fed44a04f777bb1e18ce,64c8012e3e455332383c34d9,up,1,0.75,0.05,7,0,0.4976,23,0,23,0,1,,,,,,,,,,
,,942077,001,2023-07-31_20h46.56.892,arm3_eps,2022.2.5,Win32,60.20469597,615096da057ab02942bea00d,64c7fed44a04f777bb1e18ce,64c8012e3e455332383c34d9,right,1,0.75,0.05,7,0.014998395,1.46,24,0,24,0,1,,,,,,,,,,
,,942077,001,2023-07-31_20h46.56.892,arm3_eps,2022.2.5,Win32,60.20469597,615096da057ab02942bea00d,64c7fed44a04f777bb1e18ce,64c8012e3e455332383c34d9,right,1,0.75,0.05,7,0.028558998,0.1667,25,0,25,0,1,,,,,,,,,,
,,942077,001,2023-07-31_20h46.56.892,arm3_eps,2022.2.5,Win32,60.20469597,615096da057ab02942bea00d,64c7fed44a04f777bb1e18ce,64c8012e3e455332383c34d9,up,1,0.75,0.05,8,0,0.4715,26,0,26,0,1,,,,,,,,,,
,,942077,001,2023-07-31_20h46.56.892,arm3_eps,2022.2.5,Win32,60.20469597,615096da057ab02942bea00d,64c7fed44a04f777bb1e18ce,64c8012e3e455332383c34d9,right,1,0.75,0.05,8,-0.010213593,1.2202,27,0,27,0,1,,,,,,,,,,
,,942077,001,2023-07-31_20h46.56.892,arm3_eps,2022.2.5,Win32,60.20469597,615096da057ab02942bea00d,64c7fed44a04f777bb1e18ce,64c8012e3e455332383c34d9,right,1,0.75,0.05,8,-0.002452131,0.2704,28,0,28,0,1,,,,,,,,,,
,,942077,001,2023-07-31_20h46.56.892,arm3_eps,2022.2.5,Win32,60.20469597,615096da057ab02942bea00d,64c7fed44a04f777bb1e18ce,64c8012e3e455332383c34d9,down,-1,0.75,0.05,7,0,0.5798,29,0,29,0,1,,,,,,,,,,
,,942077,001,2023-07-31_20h46.56.892,arm3_eps,2022.2.5,Win32,60.20469597,615096da057ab02942bea00d,64c7fed44a04f777bb1e18ce,64c8012e3e455332383c34d9,right,-1,0.75,0.05,7,-0.018637813,0.8836,30,0,30,0,1,,,,,,,,,,
,,942077,001,2023-07-31_20h46.56.892,arm3_eps,2022.2.5,Win32,60.20469597,615096da057ab02942bea00d,64c7fed44a04f777bb1e18ce,64c8012e3e455332383c34d9,right,-1,0.75,0.05,7,-0.031750827,0.5315,31,0,31,0,1,,,,,,,,,,
,,942077,001,2023-07-31_20h46.56.892,arm3_eps,2022.2.5,Win32,60.20469597,615096da057ab02942bea00d,64c7fed44a04f777bb1e18ce,64c8012e3e455332383c34d9,up,-1,0.75,0.05,6,0,1.1144,32,0,32,0,1,,,,,,,,,,
,,942077,001,2023-07-31_20h46.56.892,arm3_eps,2022.2.5,Win32,60.20469597,615096da057ab02942bea00d,64c7fed44a04f777bb1e18ce,64c8012e3e455332383c34d9,right,-1,0.75,0.05,6,-0.002577366,1.0754,33,0,33,0,1,,,,,,,,,,
,,942077,001,2023-07-31_20h46.56.892,arm3_eps,2022.2.5,Win32,60.20469597,615096da057ab02942bea00d,64c7fed44a04f777bb1e18ce,64c8012e3e455332383c34d9,right,-1,0.75,0.05,6,0.004265066,0.2065,34,0,34,0,1,,,,,,,,,,
,,942077,001,2023-07-31_20h46.56.892,arm3_eps,2022.2.5,Win32,60.20469597,615096da057ab02942bea00d,64c7fed44a04f777bb1e18ce,64c8012e3e455332383c34d9,right,-1,0.75,0.05,6,0.008935877,0.3638,35,0,35,0,1,,,,,,,,,,
,,942077,001,2023-07-31_20h46.56.892,arm3_eps,2022.2.5,Win32,60.20469597,615096da057ab02942bea00d,64c7fed44a04f777bb1e18ce,64c8012e3e455332383c34d9,right,-1,0.75,0.05,6,0.015210088,0.2536,36,0,36,0,1,,,,,,,,,,
,,942077,001,2023-07-31_20h46.56.892,arm3_eps,2022.2.5,Win32,60.20469597,615096da057ab02942bea00d,64c7fed44a04f777bb1e18ce,64c8012e3e455332383c34d9,right,-1,0.75,0.05,6,-0.015334824,0.3664,37,0,37,0,1,,,,,,,,,,
,,942077,001,2023-07-31_20h46.56.892,arm3_eps,2022.2.5,Win32,60.20469597,615096da057ab02942bea00d,64c7fed44a04f777bb1e18ce,64c8012e3e455332383c34d9,right,-1,0.75,0.05,6,-0.022035445,0.7143,38,0,38,0,1,,,,,,,,,,
,,942077,001,2023-07-31_20h46.56.892,arm3_eps,2022.2.5,Win32,60.20469597,615096da057ab02942bea00d,64c7fed44a04f777bb1e18ce,64c8012e3e455332383c34d9,up,-1,0.75,0.05,5,0,0.8644,39,0,39,0,1,,,,,,,,,,
,,942077,001,2023-07-31_20h46.56.892,arm3_eps,2022.2.5,Win32,60.20469597,615096da057ab02942bea00d,64c7fed44a04f777bb1e18ce,64c8012e3e455332383c34d9,down,-1,0.75,0.05,6,0,1.4988,40,0,40,0,1,,,,,,,,,,
,,942077,001,2023-07-31_20h46.56.892,arm3_eps,2022.2.5,Win32,60.20469597,615096da057ab02942bea00d,64c7fed44a04f777bb1e18ce,64c8012e3e455332383c34d9,up,-1,0.75,0.05,5,0,1.6599,41,0,41,0,1,,,,,,,,,,
,,942077,001,2023-07-31_20h46.56.892,arm3_eps,2022.2.5,Win32,60.20469597,615096da057ab02942bea00d,64c7fed44a04f777bb1e18ce,64c8012e3e455332383c34d9,down,-1,0.75,0.05,5,0,0.9926,42,0,42,0,1,,,,,,,,,,
,,942077,001,2023-07-31_20h46.56.892,arm3_eps,2022.2.5,Win32,60.20469597,615096da057ab02942bea00d,64c7fed44a04f777bb1e18ce,64c8012e3e455332383c34d9,right,-1,0.75,0.05,5,-0.040966235,0.8641,43,0,43,0,1,,,,,,,,,,
,,942077,001,2023-07-31_20h46.56.892,arm3_eps,2022.2.5,Win32,60.20469597,615096da057ab02942bea00d,64c7fed44a04f777bb1e18ce,64c8012e3e455332383c34d9,right,-1,0.75,0.05,5,-0.003234187,0.2157,44,0,44,0,1,,,,,,,,,,
,,942077,001,2023-07-31_20h46.56.892,arm3_eps,2022.2.5,Win32,60.20469597,615096da057ab02942bea00d,64c7fed44a04f777bb1e18ce,64c8012e3e455332383c34d9,up,-1,0.75,0.05,4,0,1.0808,45,0,45,0,1,,,,,,,,,,
,,942077,001,2023-07-31_20h46.56.892,arm3_eps,2022.2.5,Win32,60.20469597,615096da057ab02942bea00d,64c7fed44a04f777bb1e18ce,64c8012e3e455332383c34d9,right,-1,0.75,0.05,4,0.01481794,1.1272,46,0,46,0,1,,,,,,,,,,
,,942077,001,2023-07-31_20h46.56.892,arm3_eps,2022.2.5,Win32,60.20469597,615096da057ab02942bea00d,64c7fed44a04f777bb1e18ce,64c8012e3e455332383c34d9,right,-1,0.75,0.05,4,0.018793654,0.2801,47,0,47,0,1,,,,,,,,,,
,,942077,001,2023-07-31_20h46.56.892,arm3_eps,2022.2.5,Win32,60.20469597,615096da057ab02942bea00d,64c7fed44a04f777bb1e18ce,64c8012e3e455332383c34d9,up,-1,0.75,0.05,3,0,1.0301,48,0,48,0,1,,,,,,,,,,
,,942077,001,2023-07-31_20h46.56.892,arm3_eps,2022.2.5,Win32,60.20469597,615096da057ab02942bea00d,64c7fed44a04f777bb1e18ce,64c8012e3e455332383c34d9,down,-1,0.75,0.05,3,0,0.011,49,0,49,0,1,,,,,,,,,,
space,12.6217,942077,001,2023-07-31_20h46.56.892,arm3_eps,2022.2.5,Win32,60.20469597,615096da057ab02942bea00d,64c7fed44a04f777bb1e18ce,64c8012e3e455332383c34d9,,,,,,,,,,,,,,,,,,,,,,
space,0.5882,942077,001,2023-07-31_20h46.56.892,arm3_eps,2022.2.5,Win32,60.20469597,615096da057ab02942bea00d,64c7fed44a04f777bb1e18ce,64c8012e3e455332383c34d9,,,,,,,,,,,,,,,,,,,,,,
,,942077,001,2023-07-31_20h46.56.892,arm3_eps,2022.2.5,Win32,60.20469597,615096da057ab02942bea00d,64c7fed44a04f777bb1e18ce,64c8012e3e455332383c34d9,right,-1,0.75,0.5,0,0.026386254,1.5129,0,0,0,0,1,,,,,,,,,,
,,942077,001,2023-07-31_20h46.56.892,arm3_eps,2022.2.5,Win32,60.20469597,615096da057ab02942bea00d,64c7fed44a04f777bb1e18ce,64c8012e3e455332383c34d9,right,-1,0.75,0.5,0,0.029214011,0.2946,1,0,1,0,1,,,,,,,,,,
,,942077,001,2023-07-31_20h46.56.892,arm3_eps,2022.2.5,Win32,60.20469597,615096da057ab02942bea00d,64c7fed44a04f777bb1e18ce,64c8012e3e455332383c34d9,right,-1,0.75,0.5,0,0.014503851,0.3735,2,0,2,0,1,,,,,,,,,,
,,942077,001,2023-07-31_20h46.56.892,arm3_eps,2022.2.5,Win32,60.20469597,615096da057ab02942bea00d,64c7fed44a04f777bb1e18ce,64c8012e3e455332383c34d9,down,-1,0.75,0.5,1,0,0.7526,3,0,3,0,1,,,,,,,,,,
,,942077,001,2023-07-31_20h46.56.892,arm3_eps,2022.2.5,Win32,60.20469597,615096da057ab02942bea00d,64c7fed44a04f777bb1e18ce,64c8012e3e455332383c34d9,right,-1,0.75,0.5,1,-0.015418259,1.9341,4,0,4,0,1,,,,,,,,,,
,,942077,001,2023-07-31_20h46.56.892,arm3_eps,2022.2.5,Win32,60.20469597,615096da057ab02942bea00d,64c7fed44a04f777bb1e18ce,64c8012e3e455332383c34d9,right,-1,0.75,0.5,1,0.021619622,0.2898,5,0,5,0,1,,,,,,,,,,
,,942077,001,2023-07-31_20h46.56.892,arm3_eps,2022.2.5,Win32,60.20469597,615096da057ab02942bea00d,64c7fed44a04f777bb1e18ce,64c8012e3e455332383c34d9,right,-1,0.75,0.5,1,0.017847486,0.3986,6,0,6,0,1,,,,,,,,,,
,,942077,001,2023-07-31_20h46.56.892,arm3_eps,2022.2.5,Win32,60.20469597,615096da057ab02942bea00d,64c7fed44a04f777bb1e18ce,64c8012e3e455332383c34d9,down,1,0.75,0.5,2,0,0.7148,7,0,7,0,1,,,,,,,,,,
,,942077,001,2023-07-31_20h46.56.892,arm3_eps,2022.2.5,Win32,60.20469597,615096da057ab02942bea00d,64c7fed44a04f777bb1e18ce,64c8012e3e455332383c34d9,right,1,0.75,0.5,2,0.029455454,1.2474,8,0,8,0,1,,,,,,,,,,
,,942077,001,2023-07-31_20h46.56.892,arm3_eps,2022.2.5,Win32,60.20469597,615096da057ab02942bea00d,64c7fed44a04f777bb1e18ce,64c8012e3e455332383c34d9,right,1,0.75,0.5,2,0.024448271,0.2632,9,0,9,0,1,,,,,,,,,,
,,942077,001,2023-07-31_20h46.56.892,arm3_eps,2022.2.5,Win32,60.20469597,615096da057ab02942bea00d,64c7fed44a04f777bb1e18ce,64c8012e3e455332383c34d9,right,1,0.75,0.5,2,0.032852285,0.2452,10,0,10,0,1,,,,,,,,,,
,,942077,001,2023-07-31_20h46.56.892,arm3_eps,2022.2.5,Win32,60.20469597,615096da057ab02942bea00d,64c7fed44a04f777bb1e18ce,64c8012e3e455332383c34d9,up,-1,0.75,0.5,3,0,0.6204,11,0,11,0,1,,,,,,,,,,
,,942077,001,2023-07-31_20h46.56.892,arm3_eps,2022.2.5,Win32,60.20469597,615096da057ab02942bea00d,64c7fed44a04f777bb1e18ce,64c8012e3e455332383c34d9,right,-1,0.75,0.5,3,-0.049420702,0.8619,12,0,12,0,1,,,,,,,,,,
,,942077,001,2023-07-31_20h46.56.892,arm3_eps,2022.2.5,Win32,60.20469597,615096da057ab02942bea00d,64c7fed44a04f777bb1e18ce,64c8012e3e455332383c34d9,right,-1,0.75,0.5,3,-0.037577019,0.2359,13,0,13,0,1,,,,,,,,,,
,,942077,001,2023-07-31_20h46.56.892,arm3_eps,2022.2.5,Win32,60.20469597,615096da057ab02942bea00d,64c7fed44a04f777bb1e18ce,64c8012e3e455332383c34d9,right,-1,0.75,0.5,3,-0.045214575,0.2324,14,0,14,0,1,,,,,,,,,,
,,942077,001,2023-07-31_20h46.56.892,arm3_eps,2022.2.5,Win32,60.20469597,615096da057ab02942bea00d,64c7fed44a04f777bb1e18ce,64c8012e3e455332383c34d9,down,-1,0.75,0.5,4,0,0.6863,15,0,15,0,1,,,,,,,,,,
,,942077,001,2023-07-31_20h46.56.892,arm3_eps,2022.2.5,Win32,60.20469597,615096da057ab02942bea00d,64c7fed44a04f777bb1e18ce,64c8012e3e455332383c34d9,right,-1,0.75,0.5,4,-0.00085226,0.7187,16,0,16,0,1,,,,,,,,,,
,,942077,001,2023-07-31_20h46.56.892,arm3_eps,2022.2.5,Win32,60.20469597,615096da057ab02942bea00d,64c7fed44a04f777bb1e18ce,64c8012e3e455332383c34d9,right,-1,0.75,0.5,4,-0.039773796,0.212,17,0,17,0,1,,,,,,,,,,
,,942077,001,2023-07-31_20h46.56.892,arm3_eps,2022.2.5,Win32,60.20469597,615096da057ab02942bea00d,64c7fed44a04f777bb1e18ce,64c8012e3e455332383c34d9,down,1,0.75,0.5,5,0,0.8642,18,0,18,0,1,,,,,,,,,,
,,942077,001,2023-07-31_20h46.56.892,arm3_eps,2022.2.5,Win32,60.20469597,615096da057ab02942bea00d,64c7fed44a04f777bb1e18ce,64c8012e3e455332383c34d9,right,1,0.75,0.5,5,0.003393102,0.7846,19,0,19,0,1,,,,,,,,,,
,,942077,001,2023-07-31_20h46.56.892,arm3_eps,2022.2.5,Win32,60.20469597,615096da057ab02942bea00d,64c7fed44a04f777bb1e18ce,64c8012e3e455332383c34d9,right,1,0.75,0.5,5,0.016706255,0.3532,20,0,20,0,1,,,,,,,,,,
,,942077,001,2023-07-31_20h46.56.892,arm3_eps,2022.2.5,Win32,60.20469597,615096da057ab02942bea00d,64c7fed44a04f777bb1e18ce,64c8012e3e455332383c34d9,up,-1,0.75,0.5,5,0,0.7645,21,0,21,0,1,,,,,,,,,,
,,942077,001,2023-07-31_20h46.56.892,arm3_eps,2022.2.5,Win32,60.20469597,615096da057ab02942bea00d,64c7fed44a04f777bb1e18ce,64c8012e3e455332383c34d9,right,-1,0.75,0.5,5,-0.02079334,0.8181,22,0,22,0,1,,,,,,,,,,
,,942077,001,2023-07-31_20h46.56.892,arm3_eps,2022.2.5,Win32,60.20469597,615096da057ab02942bea00d,64c7fed44a04f777bb1e18ce,64c8012e3e455332383c34d9,right,-1,0.75,0.5,5,-0.041460827,0.2986,23,0,23,0,1,,,,,,,,,,
,,942077,001,2023-07-31_20h46.56.892,arm3_eps,2022.2.5,Win32,60.20469597,615096da057ab02942bea00d,64c7fed44a04f777bb1e18ce,64c8012e3e455332383c34d9,down,-1,0.75,0.5,5,0,0.5055,24,0,24,0,1,,,,,,,,,,
,,942077,001,2023-07-31_20h46.56.892,arm3_eps,2022.2.5,Win32,60.20469597,615096da057ab02942bea00d,64c7fed44a04f777bb1e18ce,64c8012e3e455332383c34d9,right,-1,0.75,0.5,5,0.002349954,0.7944,25,0,25,0,1,,,,,,,,,,
,,942077,001,2023-07-31_20h46.56.892,arm3_eps,2022.2.5,Win32,60.20469597,615096da057ab02942bea00d,64c7fed44a04f777bb1e18ce,64c8012e3e455332383c34d9,right,-1,0.75,0.5,5,-0.000544628,0.2467,26,0,26,0,1,,,,,,,,,,
,,942077,001,2023-07-31_20h46.56.892,arm3_eps,2022.2.5,Win32,60.20469597,615096da057ab02942bea00d,64c7fed44a04f777bb1e18ce,64c8012e3e455332383c34d9,right,-1,0.75,0.5,5,0.004112478,0.2289,27,0,27,0,1,,,,,,,,,,
,,942077,001,2023-07-31_20h46.56.892,arm3_eps,2022.2.5,Win32,60.20469597,615096da057ab02942bea00d,64c7fed44a04f777bb1e18ce,64c8012e3e455332383c34d9,right,-1,0.75,0.5,5,0.011539155,0.1469,28,0,28,0,1,,,,,,,,,,
,,942077,001,2023-07-31_20h46.56.892,arm3_eps,2022.2.5,Win32,60.20469597,615096da057ab02942bea00d,64c7fed44a04f777bb1e18ce,64c8012e3e455332383c34d9,right,-1,0.75,0.5,5,0.005995834,0.5974,29,0,29,0,1,,,,,,,,,,
,,942077,001,2023-07-31_20h46.56.892,arm3_eps,2022.2.5,Win32,60.20469597,615096da057ab02942bea00d,64c7fed44a04f777bb1e18ce,64c8012e3e455332383c34d9,up,-1,0.75,0.5,4,0,0.8548,30,0,30,0,1,,,,,,,,,,
,,942077,001,2023-07-31_20h46.56.892,arm3_eps,2022.2.5,Win32,60.20469597,615096da057ab02942bea00d,64c7fed44a04f777bb1e18ce,64c8012e3e455332383c34d9,right,-1,0.75,0.5,4,-0.006653123,0.7827,31,0,31,0,1,,,,,,,,,,
,,942077,001,2023-07-31_20h46.56.892,arm3_eps,2022.2.5,Win32,60.20469597,615096da057ab02942bea00d,64c7fed44a04f777bb1e18ce,64c8012e3e455332383c34d9,right,-1,0.75,0.5,4,0.000152767,0.2297,32,0,32,0,1,,,,,,,,,,
,,942077,001,2023-07-31_20h46.56.892,arm3_eps,2022.2.5,Win32,60.20469597,615096da057ab02942bea00d,64c7fed44a04f777bb1e18ce,64c8012e3e455332383c34d9,right,-1,0.75,0.5,4,-0.007290039,0.2641,33,0,33,0,1,,,,,,,,,,
,,942077,001,2023-07-31_20h46.56.892,arm3_eps,2022.2.5,Win32,60.20469597,615096da057ab02942bea00d,64c7fed44a04f777bb1e18ce,64c8012e3e455332383c34d9,right,-1,0.75,0.5,4,-0.015636799,0.2971,34,0,34,0,1,,,,,,,,,,
,,942077,001,2023-07-31_20h46.56.892,arm3_eps,2022.2.5,Win32,60.20469597,615096da057ab02942bea00d,64c7fed44a04f777bb1e18ce,64c8012e3e455332383c34d9,down,-1,0.75,0.5,5,0,0.3659,35,0,35,0,1,,,,,,,,,,
,,942077,001,2023-07-31_20h46.56.892,arm3_eps,2022.2.5,Win32,60.20469597,615096da057ab02942bea00d,64c7fed44a04f777bb1e18ce,64c8012e3e455332383c34d9,right,-1,0.75,0.5,5,-0.049335307,0.8291,36,0,36,0,1,,,,,,,,,,
,,942077,001,2023-07-31_20h46.56.892,arm3_eps,2022.2.5,Win32,60.20469597,615096da057ab02942bea00d,64c7fed44a04f777bb1e18ce,64c8012e3e455332383c34d9,right,-1,0.75,0.5,5,-0.045565189,0.2644,37,0,37,0,1,,,,,,,,,,
,,942077,001,2023-07-31_20h46.56.892,arm3_eps,2022.2.5,Win32,60.20469597,615096da057ab02942bea00d,64c7fed44a04f777bb1e18ce,64c8012e3e455332383c34d9,right,-1,0.75,0.5,5,-0.032826973,0.2798,38,0,38,0,1,,,,,,,,,,
,,942077,001,2023-07-31_20h46.56.892,arm3_eps,2022.2.5,Win32,60.20469597,615096da057ab02942bea00d,64c7fed44a04f777bb1e18ce,64c8012e3e455332383c34d9,down,1,0.75,0.5,6,0,0.6526,39,0,39,0,1,,,,,,,,,,
,,942077,001,2023-07-31_20h46.56.892,arm3_eps,2022.2.5,Win32,60.20469597,615096da057ab02942bea00d,64c7fed44a04f777bb1e18ce,64c8012e3e455332383c34d9,right,1,0.75,0.5,6,0.022889993,0.3614,40,0,40,0,1,,,,,,,,,,
,,942077,001,2023-07-31_20h46.56.892,arm3_eps,2022.2.5,Win32,60.20469597,615096da057ab02942bea00d,64c7fed44a04f777bb1e18ce,64c8012e3e455332383c34d9,right,1,0.75,0.5,6,0.017893475,0.3149,41,0,41,0,1,,,,,,,,,,
,,942077,001,2023-07-31_20h46.56.892,arm3_eps,2022.2.5,Win32,60.20469597,615096da057ab02942bea00d,64c7fed44a04f777bb1e18ce,64c8012e3e455332383c34d9,right,1,0.75,0.5,6,0.02467655,0.3474,42,0,42,0,1,,,,,,,,,,
,,942077,001,2023-07-31_20h46.56.892,arm3_eps,2022.2.5,Win32,60.20469597,615096da057ab02942bea00d,64c7fed44a04f777bb1e18ce,64c8012e3e455332383c34d9,up,-1,0.75,0.5,7,0,0.4976,43,0,43,0,1,,,,,,,,,,
,,942077,001,2023-07-31_20h46.56.892,arm3_eps,2022.2.5,Win32,60.20469597,615096da057ab02942bea00d,64c7fed44a04f777bb1e18ce,64c8012e3e455332383c34d9,right,-1,0.75,0.5,7,-0.004412272,0.7283,44,0,44,0,1,,,,,,,,,,
,,942077,001,2023-07-31_20h46.56.892,arm3_eps,2022.2.5,Win32,60.20469597,615096da057ab02942bea00d,64c7fed44a04f777bb1e18ce,64c8012e3e455332383c34d9,right,-1,0.75,0.5,7,-0.034838594,0.1841,45,0,45,0,1,,,,,,,,,,
,,942077,001,2023-07-31_20h46.56.892,arm3_eps,2022.2.5,Win32,60.20469597,615096da057ab02942bea00d,64c7fed44a04f777bb1e18ce,64c8012e3e455332383c34d9,down,1,0.75,0.5,7,0,0.4819,46,0,46,0,1,,,,,,,,,,
,,942077,001,2023-07-31_20h46.56.892,arm3_eps,2022.2.5,Win32,60.20469597,615096da057ab02942bea00d,64c7fed44a04f777bb1e18ce,64c8012e3e455332383c34d9,right,1,0.75,0.5,7,-0.015462766,0.8333,47,0,47,0,1,,,,,,,,,,
,,942077,001,2023-07-31_20h46.56.892,arm3_eps,2022.2.5,Win32,60.20469597,615096da057ab02942bea00d,64c7fed44a04f777bb1e18ce,64c8012e3e455332383c34d9,right,1,0.75,0.5,7,0.008665314,0.6704,48,0,48,0,1,,,,,,,,,,
,,942077,001,2023-07-31_20h46.56.892,arm3_eps,2022.2.5,Win32,60.20469597,615096da057ab02942bea00d,64c7fed44a04f777bb1e18ce,64c8012e3e455332383c34d9,up,1,0.75,0.5,7,0.008665314,0.6482,49,0,49,0,1,,,,,,,,,,
space,3.2451,942077,001,2023-07-31_20h46.56.892,arm3_eps,2022.2.5,Win32,60.20469597,615096da057ab02942bea00d,64c7fed44a04f777bb1e18ce,64c8012e3e455332383c34d9,,,,,,,,,,,,,,,,,,,,,,
space,2.8962,942077,001,2023-07-31_20h46.56.892,arm3_eps,2022.2.5,Win32,60.20469597,615096da057ab02942bea00d,64c7fed44a04f777bb1e18ce,64c8012e3e455332383c34d9,right,1,0.75,0.4357,0,0.017916891,1.2926,,,,,,0,0,0,0,1,,,,,
,,942077,001,2023-07-31_20h46.56.892,arm3_eps,2022.2.5,Win32,60.20469597,615096da057ab02942bea00d,64c7fed44a04f777bb1e18ce,64c8012e3e455332383c34d9,right,1,0.75,0.4357,0,0.042081061,0.1885,,,,,,1,0,1,0,1,,,,,
,,942077,001,2023-07-31_20h46.56.892,arm3_eps,2022.2.5,Win32,60.20469597,615096da057ab02942bea00d,64c7fed44a04f777bb1e18ce,64c8012e3e455332383c34d9,up,-1,0.75,0.4357,1,0,0.6235,,,,,,2,0,2,0,1,,,,,
,,942077,001,2023-07-31_20h46.56.892,arm3_eps,2022.2.5,Win32,60.20469597,615096da057ab02942bea00d,64c7fed44a04f777bb1e18ce,64c8012e3e455332383c34d9,right,-1,0.75,0.4357,1,-0.036621231,0.8282,,,,,,3,0,3,0,1,,,,,
,,942077,001,2023-07-31_20h46.56.892,arm3_eps,2022.2.5,Win32,60.20469597,615096da057ab02942bea00d,64c7fed44a04f777bb1e18ce,64c8012e3e455332383c34d9,right,-1,0.75,0.4357,1,-0.038840291,0.1378,,,,,,4,0,4,0,1,,,,,
,,942077,001,2023-07-31_20h46.56.892,arm3_eps,2022.2.5,Win32,60.20469597,615096da057ab02942bea00d,64c7fed44a04f777bb1e18ce,64c8012e3e455332383c34d9,down,-1,0.75,0.4357,2,0,0.4677,,,,,,5,0,5,0,1,,,,,
,,942077,001,2023-07-31_20h46.56.892,arm3_eps,2022.2.5,Win32,60.20469597,615096da057ab02942bea00d,64c7fed44a04f777bb1e18ce,64c8012e3e455332383c34d9,right,-1,0.75,0.4357,2,-0.024711712,0.7961,,,,,,6,0,6,0,1,,,,,
,,942077,001,2023-07-31_20h46.56.892,arm3_eps,2022.2.5,Win32,60.20469597,615096da057ab02942bea00d,64c7fed44a04f777bb1e18ce,64c8012e3e455332383c34d9,right,-1,0.75,0.4357,2,-0.034255592,0.1523,,,,,,7,0,7,0,1,,,,,
,,942077,001,2023-07-31_20h46.56.892,arm3_eps,2022.2.5,Win32,60.20469597,615096da057ab02942bea00d,64c7fed44a04f777bb1e18ce,64c8012e3e455332383c34d9,down,-1,0.75,0.4357,2,0,0.5448,,,,,,8,0,8,0,1,,,,,
,,942077,001,2023-07-31_20h46.56.892,arm3_eps,2022.2.5,Win32,60.20469597,615096da057ab02942bea00d,64c7fed44a04f777bb1e18ce,64c8012e3e455332383c34d9,right,-1,0.75,0.4357,2,-0.024847815,0.7888,,,,,,9,0,9,0,1,,,,,
,,942077,001,2023-07-31_20h46.56.892,arm3_eps,2022.2.5,Win32,60.20469597,615096da057ab02942bea00d,64c7fed44a04f777bb1e18ce,64c8012e3e455332383c34d9,right,-1,0.75,0.4357,2,-0.031537339,0.2229,,,,,,10,0,10,0,1,,,,,
,,942077,001,2023-07-31_20h46.56.892,arm3_eps,2022.2.5,Win32,60.20469597,615096da057ab02942bea00d,64c7fed44a04f777bb1e18ce,64c8012e3e455332383c34d9,right,-1,0.75,0.4357,2,-0.033999564,0.2663,,,,,,11,0,11,0,1,,,,,
,,942077,001,2023-07-31_20h46.56.892,arm3_eps,2022.2.5,Win32,60.20469597,615096da057ab02942bea00d,64c7fed44a04f777bb1e18ce,64c8012e3e455332383c34d9,down,-1,0.75,0.4357,3,0,0.779,,,,,,12,0,12,0,1,,,,,
,,942077,001,2023-07-31_20h46.56.892,arm3_eps,2022.2.5,Win32,60.20469597,615096da057ab02942bea00d,64c7fed44a04f777bb1e18ce,64c8012e3e455332383c34d9,right,-1,0.75,0.4357,3,0.008773265,1.3765,,,,,,13,0,13,0,1,,,,,
,,942077,001,2023-07-31_20h46.56.892,arm3_eps,2022.2.5,Win32,60.20469597,615096da057ab02942bea00d,64c7fed44a04f777bb1e18ce,64c8012e3e455332383c34d9,right,-1,0.75,0.4357,3,0.018166336,0.2973,,,,,,14,0,14,0,1,,,,,
,,942077,001,2023-07-31_20h46.56.892,arm3_eps,2022.2.5,Win32,60.20469597,615096da057ab02942bea00d,64c7fed44a04f777bb1e18ce,64c8012e3e455332383c34d9,right,-1,0.75,0.4357,3,-0.006903913,0.6208,,,,,,15,0,15,0,1,,,,,
,,942077,001,2023-07-31_20h46.56.892,arm3_eps,2022.2.5,Win32,60.20469597,615096da057ab02942bea00d,64c7fed44a04f777bb1e18ce,64c8012e3e455332383c34d9,right,-1,0.75,0.4357,3,0.011955012,0.9494,,,,,,16,0,16,0,1,,,,,
,,942077,001,2023-07-31_20h46.56.892,arm3_eps,2022.2.5,Win32,60.20469597,615096da057ab02942bea00d,64c7fed44a04f777bb1e18ce,64c8012e3e455332383c34d9,right,-1,0.75,0.4357,3,-0.014677012,0.2476,,,,,,17,0,17,0,1,,,,,
,,942077,001,2023-07-31_20h46.56.892,arm3_eps,2022.2.5,Win32,60.20469597,615096da057ab02942bea00d,64c7fed44a04f777bb1e18ce,64c8012e3e455332383c34d9,down,-1,0.75,0.4357,3,0,1.4632,,,,,,18,0,18,0,1,,,,,
,,942077,001,2023-07-31_20h46.56.892,arm3_eps,2022.2.5,Win32,60.20469597,615096da057ab02942bea00d,64c7fed44a04f777bb1e18ce,64c8012e3e455332383c34d9,right,-1,0.75,0.4357,3,-0.034240577,0.7776,,,,,,19,0,19,0,1,,,,,
,,942077,001,2023-07-31_20h46.56.892,arm3_eps,2022.2.5,Win32,60.20469597,615096da057ab02942bea00d,64c7fed44a04f777bb1e18ce,64c8012e3e455332383c34d9,right,-1,0.75,0.4357,3,-0.052688102,0.2988,,,,,,20,0,20,0,1,,,,,
,,942077,001,2023-07-31_20h46.56.892,arm3_eps,2022.2.5,Win32,60.20469597,615096da057ab02942bea00d,64c7fed44a04f777bb1e18ce,64c8012e3e455332383c34d9,up,1,0.75,0.4357,3,0,0.8957,,,,,,21,0,21,0,1,,,,,
,,942077,001,2023-07-31_20h46.56.892,arm3_eps,2022.2.5,Win32,60.20469597,615096da057ab02942bea00d,64c7fed44a04f777bb1e18ce,64c8012e3e455332383c34d9,right,1,0.75,0.4357,3,-0.014131857,0.7526,,,,,,22,0,22,0,1,,,,,
,,942077,001,2023-07-31_20h46.56.892,arm3_eps,2022.2.5,Win32,60.20469597,615096da057ab02942bea00d,64c7fed44a04f777bb1e18ce,64c8012e3e455332383c34d9,right,1,0.75,0.4357,3,-0.024302055,0.2351,,,,,,23,0,23,0,1,,,,,
,,942077,001,2023-07-31_20h46.56.892,arm3_eps,2022.2.5,Win32,60.20469597,615096da057ab02942bea00d,64c7fed44a04f777bb1e18ce,64c8012e3e455332383c34d9,right,1,0.75,0.4357,3,-0.018742253,0.3972,,,,,,24,0,24,0,1,,,,,
,,942077,001,2023-07-31_20h46.56.892,arm3_eps,2022.2.5,Win32,60.20469597,615096da057ab02942bea00d,64c7fed44a04f777bb1e18ce,64c8012e3e455332383c34d9,right,1,0.75,0.4357,3,-0.015812217,0.8822,,,,,,25,0,25,0,1,,,,,
,,942077,001,2023-07-31_20h46.56.892,arm3_eps,2022.2.5,Win32,60.20469597,615096da057ab02942bea00d,64c7fed44a04f777bb1e18ce,64c8012e3e455332383c34d9,down,1,0.75,0.4357,2,0,0.6313,,,,,,26,0,26,0,1,,,,,
,,942077,001,2023-07-31_20h46.56.892,arm3_eps,2022.2.5,Win32,60.20469597,615096da057ab02942bea00d,64c7fed44a04f777bb1e18ce,64c8012e3e455332383c34d9,right,1,0.75,0.4357,2,0.001232573,1.6615,,,,,,27,0,27,0,1,,,,,
,,942077,001,2023-07-31_20h46.56.892,arm3_eps,2022.2.5,Win32,60.20469597,615096da057ab02942bea00d,64c7fed44a04f777bb1e18ce,64c8012e3e455332383c34d9,right,1,0.75,0.4357,2,0.003527082,0.311,,,,,,28,0,28,0,1,,,,,
,,942077,001,2023-07-31_20h46.56.892,arm3_eps,2022.2.5,Win32,60.20469597,615096da057ab02942bea00d,64c7fed44a04f777bb1e18ce,64c8012e3e455332383c34d9,right,1,0.75,0.4357,2,0.02599354,0.364,,,,,,29,0,29,0,1,,,,,
,,942077,001,2023-07-31_20h46.56.892,arm3_eps,2022.2.5,Win32,60.20469597,615096da057ab02942bea00d,64c7fed44a04f777bb1e18ce,64c8012e3e455332383c34d9,up,-1,0.75,0.4357,3,0,0.5316,,,,,,30,0,30,0,1,,,,,
,,942077,001,2023-07-31_20h46.56.892,arm3_eps,2022.2.5,Win32,60.20469597,615096da057ab02942bea00d,64c7fed44a04f777bb1e18ce,64c8012e3e455332383c34d9,right,-1,0.75,0.4357,3,-0.032925892,1.575,,,,,,31,0,31,0,1,,,,,
,,942077,001,2023-07-31_20h46.56.892,arm3_eps,2022.2.5,Win32,60.20469597,615096da057ab02942bea00d,64c7fed44a04f777bb1e18ce,64c8012e3e455332383c34d9,right,-1,0.75,0.4357,3,-0.045835436,0.2649,,,,,,32,0,32,0,1,,,,,
,,942077,001,2023-07-31_20h46.56.892,arm3_eps,2022.2.5,Win32,60.20469597,615096da057ab02942bea00d,64c7fed44a04f777bb1e18ce,64c8012e3e455332383c34d9,right,-1,0.75,0.4357,3,-0.055638513,0.8389,,,,,,33,0,33,0,1,,,,,
,,942077,001,2023-07-31_20h46.56.892,arm3_eps,2022.2.5,Win32,60.20469597,615096da057ab02942bea00d,64c7fed44a04f777bb1e18ce,64c8012e3e455332383c34d9,down,-1,0.75,0.4357,4,0,0.8393,,,,,,34,0,34,0,1,,,,,
,,942077,001,2023-07-31_20h46.56.892,arm3_eps,2022.2.5,Win32,60.20469597,615096da057ab02942bea00d,64c7fed44a04f777bb1e18ce,64c8012e3e455332383c34d9,down,-1,0.75,0.4357,5,0,1.8862,,,,,,35,0,35,0,1,,,,,
,,942077,001,2023-07-31_20h46.56.892,arm3_eps,2022.2.5,Win32,60.20469597,615096da057ab02942bea00d,64c7fed44a04f777bb1e18ce,64c8012e3e455332383c34d9,down,-1,0.75,0.4357,5,0,1.6298,,,,,,36,0,36,0,1,,,,,
,,942077,001,2023-07-31_20h46.56.892,arm3_eps,2022.2.5,Win32,60.20469597,615096da057ab02942bea00d,64c7fed44a04f777bb1e18ce,64c8012e3e455332383c34d9,right,-1,0.75,0.4357,5,-0.004980196,1.9443,,,,,,37,0,37,0,1,,,,,
,,942077,001,2023-07-31_20h46.56.892,arm3_eps,2022.2.5,Win32,60.20469597,615096da057ab02942bea00d,64c7fed44a04f777bb1e18ce,64c8012e3e455332383c34d9,right,-1,0.75,0.4357,5,-0.004016998,0.1509,,,,,,38,0,38,0,1,,,,,
,,942077,001,2023-07-31_20h46.56.892,arm3_eps,2022.2.5,Win32,60.20469597,615096da057ab02942bea00d,64c7fed44a04f777bb1e18ce,64c8012e3e455332383c34d9,right,-1,0.75,0.4357,5,0.011693749,0.2173,,,,,,39,0,39,0,1,,,,,
,,942077,001,2023-07-31_20h46.56.892,arm3_eps,2022.2.5,Win32,60.20469597,615096da057ab02942bea00d,64c7fed44a04f777bb1e18ce,64c8012e3e455332383c34d9,right,-1,0.75,0.4357,5,0.018916691,0.1844,,,,,,40,0,40,0,1,,,,,
,,942077,001,2023-07-31_20h46.56.892,arm3_eps,2022.2.5,Win32,60.20469597,615096da057ab02942bea00d,64c7fed44a04f777bb1e18ce,64c8012e3e455332383c34d9,right,-1,0.75,0.4357,5,0.056634347,0.134,,,,,,41,0,41,0,1,,,,,
,,942077,001,2023-07-31_20h46.56.892,arm3_eps,2022.2.5,Win32,60.20469597,615096da057ab02942bea00d,64c7fed44a04f777bb1e18ce,64c8012e3e455332383c34d9,up,1,0.75,0.4357,4,0,0.6004,,,,,,42,0,42,0,1,,,,,
,,942077,001,2023-07-31_20h46.56.892,arm3_eps,2022.2.5,Win32,60.20469597,615096da057ab02942bea00d,64c7fed44a04f777bb1e18ce,64c8012e3e455332383c34d9,down,1,0.75,0.4357,3,0,1.8347,,,,,,43,0,43,0,1,,,,,
,,942077,001,2023-07-31_20h46.56.892,arm3_eps,2022.2.5,Win32,60.20469597,615096da057ab02942bea00d,64c7fed44a04f777bb1e18ce,64c8012e3e455332383c34d9,right,1,0.75,0.4357,3,0.007238121,0.9669,,,,,,44,0,44,0,1,,,,,
,,942077,001,2023-07-31_20h46.56.892,arm3_eps,2022.2.5,Win32,60.20469597,615096da057ab02942bea00d,64c7fed44a04f777bb1e18ce,64c8012e3e455332383c34d9,right,1,0.75,0.4357,3,0.024874793,0.2505,,,,,,45,0,45,0,1,,,,,
,,942077,001,2023-07-31_20h46.56.892,arm3_eps,2022.2.5,Win32,60.20469597,615096da057ab02942bea00d,64c7fed44a04f777bb1e18ce,64c8012e3e455332383c34d9,right,1,0.75,0.4357,3,0.027749542,0.1848,,,,,,46,0,46,0,1,,,,,
,,942077,001,2023-07-31_20h46.56.892,arm3_eps,2022.2.5,Win32,60.20469597,615096da057ab02942bea00d,64c7fed44a04f777bb1e18ce,64c8012e3e455332383c34d9,right,1,0.75,0.4357,3,0.006828446,0.2005,,,,,,47,0,47,0,1,,,,,
,,942077,001,2023-07-31_20h46.56.892,arm3_eps,2022.2.5,Win32,60.20469597,615096da057ab02942bea00d,64c7fed44a04f777bb1e18ce,64c8012e3e455332383c34d9,right,1,0.75,0.4357,3,0.038489608,0.4337,,,,,,48,0,48,0,1,,,,,
,,942077,001,2023-07-31_20h46.56.892,arm3_eps,2022.2.5,Win32,60.20469597,615096da057ab02942bea00d,64c7fed44a04f777bb1e18ce,64c8012e3e455332383c34d9,up,-1,0.75,0.4357,3,0,0.6501,,,,,,49,0,49,0,1,,,,,
,,942077,001,2023-07-31_20h46.56.892,arm3_eps,2022.2.5,Win32,60.20469597,615096da057ab02942bea00d,64c7fed44a04f777bb1e18ce,64c8012e3e455332383c34d9,down,-1,0.75,0.4357,4,0,0.0167,,,,,,50,0,50,0,1,,,,,
,,942077,001,2023-07-31_20h46.56.892,arm3_eps,2022.2.5,Win32,60.20469597,615096da057ab02942bea00d,64c7fed44a04f777bb1e18ce,64c8012e3e455332383c34d9,right,-1,0.75,0.4357,4,0.019898213,2.0172,,,,,,51,0,51,0,1,,,,,
,,942077,001,2023-07-31_20h46.56.892,arm3_eps,2022.2.5,Win32,60.20469597,615096da057ab02942bea00d,64c7fed44a04f777bb1e18ce,64c8012e3e455332383c34d9,right,-1,0.75,0.4357,4,0.009339905,0.1356,,,,,,52,0,52,0,1,,,,,
,,942077,001,2023-07-31_20h46.56.892,arm3_eps,2022.2.5,Win32,60.20469597,615096da057ab02942bea00d,64c7fed44a04f777bb1e18ce,64c8012e3e455332383c34d9,right,-1,0.75,0.4357,4,0.032589862,0.2839,,,,,,53,0,53,0,1,,,,,
,,942077,001,2023-07-31_20h46.56.892,arm3_eps,2022.2.5,Win32,60.20469597,615096da057ab02942bea00d,64c7fed44a04f777bb1e18ce,64c8012e3e455332383c34d9,right,-1,0.75,0.4357,4,0.00942372,0.2841,,,,,,54,0,54,0,1,,,,,
,,942077,001,2023-07-31_20h46.56.892,arm3_eps,2022.2.5,Win32,60.20469597,615096da057ab02942bea00d,64c7fed44a04f777bb1e18ce,64c8012e3e455332383c34d9,down,1,0.75,0.4357,4,0,0.5059,,,,,,55,0,55,0,1,,,,,
,,942077,001,2023-07-31_20h46.56.892,arm3_eps,2022.2.5,Win32,60.20469597,615096da057ab02942bea00d,64c7fed44a04f777bb1e18ce,64c8012e3e455332383c34d9,right,1,0.75,0.4357,4,0.014988508,0.9846,,,,,,56,0,56,0,1,,,,,
,,942077,001,2023-07-31_20h46.56.892,arm3_eps,2022.2.5,Win32,60.20469597,615096da057ab02942bea00d,64c7fed44a04f777bb1e18ce,64c8012e3e455332383c34d9,right,1,0.75,0.4357,4,0.01818709,0.2009,,,,,,57,0,57,0,1,,,,,
,,942077,001,2023-07-31_20h46.56.892,arm3_eps,2022.2.5,Win32,60.20469597,615096da057ab02942bea00d,64c7fed44a04f777bb1e18ce,64c8012e3e455332383c34d9,right,1,0.75,0.4357,4,0.013461755,0.584,,,,,,58,0,58,0,1,,,,,
,,942077,001,2023-07-31_20h46.56.892,arm3_eps,2022.2.5,Win32,60.20469597,615096da057ab02942bea00d,64c7fed44a04f777bb1e18ce,64c8012e3e455332383c34d9,right,1,0.75,0.4357,4,0.021037124,0.4007,,,,,,59,0,59,0,1,,,,,
,,942077,001,2023-07-31_20h46.56.892,arm3_eps,2022.2.5,Win32,60.20469597,615096da057ab02942bea00d,64c7fed44a04f777bb1e18ce,64c8012e3e455332383c34d9,right,1,0.75,0.4357,4,0.047863909,0.3008,,,,,,60,0,60,0,1,,,,,
,,942077,001,2023-07-31_20h46.56.892,arm3_eps,2022.2.5,Win32,60.20469597,615096da057ab02942bea00d,64c7fed44a04f777bb1e18ce,64c8012e3e455332383c34d9,right,1,0.75,0.4357,4,0.043598562,0.6005,,,,,,61,0,61,0,1,,,,,
,,942077,001,2023-07-31_20h46.56.892,arm3_eps,2022.2.5,Win32,60.20469597,615096da057ab02942bea00d,64c7fed44a04f777bb1e18ce,64c8012e3e455332383c34d9,right,1,0.75,0.4357,4,0.046871445,0.2672,,,,,,62,0,62,0,1,,,,,
,,942077,001,2023-07-31_20h46.56.892,arm3_eps,2022.2.5,Win32,60.20469597,615096da057ab02942bea00d,64c7fed44a04f777bb1e18ce,64c8012e3e455332383c34d9,up,1,0.75,0.4357,5,0,0.6346,,,,,,63,0,63,0,1,,,,,
,,942077,001,2023-07-31_20h46.56.892,arm3_eps,2022.2.5,Win32,60.20469597,615096da057ab02942bea00d,64c7fed44a04f777bb1e18ce,64c8012e3e455332383c34d9,right,1,0.75,0.4357,5,0.013643794,0.8,,,,,,64,0,64,0,1,,,,,
,,942077,001,2023-07-31_20h46.56.892,arm3_eps,2022.2.5,Win32,60.20469597,615096da057ab02942bea00d,64c7fed44a04f777bb1e18ce,64c8012e3e455332383c34d9,right,1,0.75,0.4357,5,0.021914457,0.1495,,,,,,65,0,65,0,1,,,,,
,,942077,001,2023-07-31_20h46.56.892,arm3_eps,2022.2.5,Win32,60.20469597,615096da057ab02942bea00d,64c7fed44a04f777bb1e18ce,64c8012e3e455332383c34d9,right,1,0.75,0.4357,5,0.04258592,0.4002,,,,,,66,0,66,0,1,,,,,
,,942077,001,2023-07-31_20h46.56.892,arm3_eps,2022.2.5,Win32,60.20469597,615096da057ab02942bea00d,64c7fed44a04f777bb1e18ce,64c8012e3e455332383c34d9,up,-1,0.75,0.4357,6,0,0.4675,,,,,,67,0,67,0,1,,,,,
,,942077,001,2023-07-31_20h46.56.892,arm3_eps,2022.2.5,Win32,60.20469597,615096da057ab02942bea00d,64c7fed44a04f777bb1e18ce,64c8012e3e455332383c34d9,right,-1,0.75,0.4357,6,-0.029289496,0.8001,,,,,,68,0,68,0,1,,,,,
,,942077,001,2023-07-31_20h46.56.892,arm3_eps,2022.2.5,Win32,60.20469597,615096da057ab02942bea00d,64c7fed44a04f777bb1e18ce,64c8012e3e455332383c34d9,right,-1,0.75,0.4357,6,-0.050270243,0.1168,,,,,,69,0,69,0,1,,,,,
,,942077,001,2023-07-31_20h46.56.892,arm3_eps,2022.2.5,Win32,60.20469597,615096da057ab02942bea00d,64c7fed44a04f777bb1e18ce,64c8012e3e455332383c34d9,down,-1,0.75,0.4357,6,0,0.434,,,,,,70,0,70,0,1,,,,,
,,942077,001,2023-07-31_20h46.56.892,arm3_eps,2022.2.5,Win32,60.20469597,615096da057ab02942bea00d,64c7fed44a04f777bb1e18ce,64c8012e3e455332383c34d9,right,-1,0.75,0.4357,6,0.014515296,0.884,,,,,,71,0,71,0,1,,,,,
,,942077,001,2023-07-31_20h46.56.892,arm3_eps,2022.2.5,Win32,60.20469597,615096da057ab02942bea00d,64c7fed44a04f777bb1e18ce,64c8012e3e455332383c34d9,right,-1,0.75,0.4357,6,0.000534918,0.2825,,,,,,72,0,72,0,1,,,,,
,,942077,001,2023-07-31_20h46.56.892,arm3_eps,2022.2.5,Win32,60.20469597,615096da057ab02942bea00d,64c7fed44a04f777bb1e18ce,64c8012e3e455332383c34d9,up,-1,0.75,0.4357,5,0,0.8169,,,,,,73,0,73,0,1,,,,,
,,942077,001,2023-07-31_20h46.56.892,arm3_eps,2022.2.5,Win32,60.20469597,615096da057ab02942bea00d,64c7fed44a04f777bb1e18ce,64c8012e3e455332383c34d9,right,-1,0.75,0.4357,5,0.014269227,0.7338,,,,,,74,0,74,0,1,,,,,
,,942077,001,2023-07-31_20h46.56.892,arm3_eps,2022.2.5,Win32,60.20469597,615096da057ab02942bea00d,64c7fed44a04f777bb1e18ce,64c8012e3e455332383c34d9,right,-1,0.75,0.4357,5,-0.006080801,0.1337,,,,,,75,0,75,0,1,,,,,
,,942077,001,2023-07-31_20h46.56.892,arm3_eps,2022.2.5,Win32,60.20469597,615096da057ab02942bea00d,64c7fed44a04f777bb1e18ce,64c8012e3e455332383c34d9,right,-1,0.75,0.4357,5,-0.013868389,0.2505,,,,,,76,0,76,0,1,,,,,
,,942077,001,2023-07-31_20h46.56.892,arm3_eps,2022.2.5,Win32,60.20469597,615096da057ab02942bea00d,64c7fed44a04f777bb1e18ce,64c8012e3e455332383c34d9,down,1,0.75,0.4357,5,0,0.434,,,,,,77,0,77,0,1,,,,,
,,942077,001,2023-07-31_20h46.56.892,arm3_eps,2022.2.5,Win32,60.20469597,615096da057ab02942bea00d,64c7fed44a04f777bb1e18ce,64c8012e3e455332383c34d9,right,1,0.75,0.4357,5,-0.012941685,0.8012,,,,,,78,0,78,0,1,,,,,
,,942077,001,2023-07-31_20h46.56.892,arm3_eps,2022.2.5,Win32,60.20469597,615096da057ab02942bea00d,64c7fed44a04f777bb1e18ce,64c8012e3e455332383c34d9,right,1,0.75,0.4357,5,-0.009988689,0.1175,,,,,,79,0,79,0,1,,,,,
,,942077,001,2023-07-31_20h46.56.892,arm3_eps,2022.2.5,Win32,60.20469597,615096da057ab02942bea00d,64c7fed44a04f777bb1e18ce,64c8012e3e455332383c34d9,right,1,0.75,0.4357,5,0.040905827,0.3334,,,,,,80,0,80,0,1,,,,,
,,942077,001,2023-07-31_20h46.56.892,arm3_eps,2022.2.5,Win32,60.20469597,615096da057ab02942bea00d,64c7fed44a04f777bb1e18ce,64c8012e3e455332383c34d9,up,1,0.75,0.4357,6,0,0.5509,,,,,,81,0,81,0,1,,,,,
,,942077,001,2023-07-31_20h46.56.892,arm3_eps,2022.2.5,Win32,60.20469597,615096da057ab02942bea00d,64c7fed44a04f777bb1e18ce,64c8012e3e455332383c34d9,right,1,0.75,0.4357,6,0.029347273,0.7679,,,,,,82,0,82,0,1,,,,,
,,942077,001,2023-07-31_20h46.56.892,arm3_eps,2022.2.5,Win32,60.20469597,615096da057ab02942bea00d,64c7fed44a04f777bb1e18ce,64c8012e3e455332383c34d9,right,1,0.75,0.4357,6,0.03107565,0.1343,,,,,,83,0,83,0,1,,,,,
,,942077,001,2023-07-31_20h46.56.892,arm3_eps,2022.2.5,Win32,60.20469597,615096da057ab02942bea00d,64c7fed44a04f777bb1e18ce,64c8012e3e455332383c34d9,up,-1,0.75,0.4357,7,0,0.9421,,,,,,84,0,84,0,1,,,,,
,,942077,001,2023-07-31_20h46.56.892,arm3_eps,2022.2.5,Win32,60.20469597,615096da057ab02942bea00d,64c7fed44a04f777bb1e18ce,64c8012e3e455332383c34d9,right,-1,0.75,0.4357,7,-0.022405594,0.8507,,,,,,85,0,85,0,1,,,,,
,,942077,001,2023-07-31_20h46.56.892,arm3_eps,2022.2.5,Win32,60.20469597,615096da057ab02942bea00d,64c7fed44a04f777bb1e18ce,64c8012e3e455332383c34d9,right,-1,0.75,0.4357,7,-0.021401747,0.5337,,,,,,86,0,86,0,1,,,,,
,,942077,001,2023-07-31_20h46.56.892,arm3_eps,2022.2.5,Win32,60.20469597,615096da057ab02942bea00d,64c7fed44a04f777bb1e18ce,64c8012e3e455332383c34d9,down,-1,0.75,0.4357,8,0,0.6003,,,,,,87,0,87,0,1,,,,,
,,942077,001,2023-07-31_20h46.56.892,arm3_eps,2022.2.5,Win32,60.20469597,615096da057ab02942bea00d,64c7fed44a04f777bb1e18ce,64c8012e3e455332383c34d9,right,-1,0.75,0.4357,8,-0.002683577,0.6837,,,,,,88,0,88,0,1,,,,,
,,942077,001,2023-07-31_20h46.56.892,arm3_eps,2022.2.5,Win32,60.20469597,615096da057ab02942bea00d,64c7fed44a04f777bb1e18ce,64c8012e3e455332383c34d9,right,-1,0.75,0.4357,8,-0.005450548,0.2012,,,,,,89,0,89,0,1,,,,,
,,942077,001,2023-07-31_20h46.56.892,arm3_eps,2022.2.5,Win32,60.20469597,615096da057ab02942bea00d,64c7fed44a04f777bb1e18ce,64c8012e3e455332383c34d9,down,-1,0.75,0.4357,9,0,0.4507,,,,,,90,0,90,0,1,,,,,
,,942077,001,2023-07-31_20h46.56.892,arm3_eps,2022.2.5,Win32,60.20469597,615096da057ab02942bea00d,64c7fed44a04f777bb1e18ce,64c8012e3e455332383c34d9,right,-1,0.75,0.4357,9,-0.028859092,0.7001,,,,,,91,0,91,0,1,,,,,
,,942077,001,2023-07-31_20h46.56.892,arm3_eps,2022.2.5,Win32,60.20469597,615096da057ab02942bea00d,64c7fed44a04f777bb1e18ce,64c8012e3e455332383c34d9,right,-1,0.75,0.4357,9,-0.037560726,0.1413,,,,,,92,0,92,0,1,,,,,
,,942077,001,2023-07-31_20h46.56.892,arm3_eps,2022.2.5,Win32,60.20469597,615096da057ab02942bea00d,64c7fed44a04f777bb1e18ce,64c8012e3e455332383c34d9,down,-1,0.75,0.4357,10,0,0.5334,,,,,,93,0,93,0,1,,,,,
,,942077,001,2023-07-31_20h46.56.892,arm3_eps,2022.2.5,Win32,60.20469597,615096da057ab02942bea00d,64c7fed44a04f777bb1e18ce,64c8012e3e455332383c34d9,right,-1,0.75,0.4357,10,-0.012660315,0.7671,,,,,,94,0,94,0,1,,,,,
,,942077,001,2023-07-31_20h46.56.892,arm3_eps,2022.2.5,Win32,60.20469597,615096da057ab02942bea00d,64c7fed44a04f777bb1e18ce,64c8012e3e455332383c34d9,right,-1,0.75,0.4357,10,0.000587884,0.1122,,,,,,95,0,95,0,1,,,,,
,,942077,001,2023-07-31_20h46.56.892,arm3_eps,2022.2.5,Win32,60.20469597,615096da057ab02942bea00d,64c7fed44a04f777bb1e18ce,64c8012e3e455332383c34d9,down,1,0.75,0.4357,11,0,0.8672,,,,,,96,0,96,0,1,,,,,
,,942077,001,2023-07-31_20h46.56.892,arm3_eps,2022.2.5,Win32,60.20469597,615096da057ab02942bea00d,64c7fed44a04f777bb1e18ce,64c8012e3e455332383c34d9,right,1,0.75,0.4357,11,-0.003864943,0.8341,,,,,,97,0,97,0,1,,,,,
,,942077,001,2023-07-31_20h46.56.892,arm3_eps,2022.2.5,Win32,60.20469597,615096da057ab02942bea00d,64c7fed44a04f777bb1e18ce,64c8012e3e455332383c34d9,right,1,0.75,0.4357,11,-0.019473603,0.1253,,,,,,98,0,98,0,1,,,,,
,,942077,001,2023-07-31_20h46.56.892,arm3_eps,2022.2.5,Win32,60.20469597,615096da057ab02942bea00d,64c7fed44a04f777bb1e18ce,64c8012e3e455332383c34d9,right,1,0.75,0.4357,11,-0.004062758,0.8834,,,,,,99,0,99,0,1,,,,,
,,942077,001,2023-07-31_20h46.56.892,arm3_eps,2022.2.5,Win32,60.20469597,615096da057ab02942bea00d,64c7fed44a04f777bb1e18ce,64c8012e3e455332383c34d9,up,1,0.75,0.4357,12,0,0.7674,,,,,,100,0,100,0,1,,,,,
,,942077,001,2023-07-31_20h46.56.892,arm3_eps,2022.2.5,Win32,60.20469597,615096da057ab02942bea00d,64c7fed44a04f777bb1e18ce,64c8012e3e455332383c34d9,down,1,0.75,0.4357,11,0,0.0339,,,,,,101,0,101,0,1,,,,,
,,942077,001,2023-07-31_20h46.56.892,arm3_eps,2022.2.5,Win32,60.20469597,615096da057ab02942bea00d,64c7fed44a04f777bb1e18ce,64c8012e3e455332383c34d9,right,1,0.75,0.4357,11,0.010414622,1.3497,,,,,,102,0,102,0,1,,,,,
,,942077,001,2023-07-31_20h46.56.892,arm3_eps,2022.2.5,Win32,60.20469597,615096da057ab02942bea00d,64c7fed44a04f777bb1e18ce,64c8012e3e455332383c34d9,right,1,0.75,0.4357,11,-0.001343276,0.1176,,,,,,103,0,103,0,1,,,,,
,,942077,001,2023-07-31_20h46.56.892,arm3_eps,2022.2.5,Win32,60.20469597,615096da057ab02942bea00d,64c7fed44a04f777bb1e18ce,64c8012e3e455332383c34d9,right,1,0.75,0.4357,11,0.010598092,1.0838,,,,,,104,0,104,0,1,,,,,
,,942077,001,2023-07-31_20h46.56.892,arm3_eps,2022.2.5,Win32,60.20469597,615096da057ab02942bea00d,64c7fed44a04f777bb1e18ce,64c8012e3e455332383c34d9,up,-1,0.75,0.4357,12,0,1.0476,,,,,,105,0,105,0,1,,,,,
,,942077,001,2023-07-31_20h46.56.892,arm3_eps,2022.2.5,Win32,60.20469597,615096da057ab02942bea00d,64c7fed44a04f777bb1e18ce,64c8012e3e455332383c34d9,right,-1,0.75,0.4357,12,-0.007240106,0.8172,,,,,,106,0,106,0,1,,,,,
,,942077,001,2023-07-31_20h46.56.892,arm3_eps,2022.2.5,Win32,60.20469597,615096da057ab02942bea00d,64c7fed44a04f777bb1e18ce,64c8012e3e455332383c34d9,right,-1,0.75,0.4357,12,-0.01098993,0.1009,,,,,,107,0,107,0,1,,,,,
,,942077,001,2023-07-31_20h46.56.892,arm3_eps,2022.2.5,Win32,60.20469597,615096da057ab02942bea00d,64c7fed44a04f777bb1e18ce,64c8012e3e455332383c34d9,down,1,0.75,0.4357,12,0,0.4339,,,,,,108,0,108,0,1,,,,,
,,942077,001,2023-07-31_20h46.56.892,arm3_eps,2022.2.5,Win32,60.20469597,615096da057ab02942bea00d,64c7fed44a04f777bb1e18ce,64c8012e3e455332383c34d9,right,1,0.75,0.4357,12,0.047522275,1.1668,,,,,,109,0,109,0,1,,,,,
,,942077,001,2023-07-31_20h46.56.892,arm3_eps,2022.2.5,Win32,60.20469597,615096da057ab02942bea00d,64c7fed44a04f777bb1e18ce,64c8012e3e455332383c34d9,right,1,0.75,0.4357,12,0.075889134,0.1168,,,,,,110,0,110,0,1,,,,,
,,942077,001,2023-07-31_20h46.56.892,arm3_eps,2022.2.5,Win32,60.20469597,615096da057ab02942bea00d,64c7fed44a04f777bb1e18ce,64c8012e3e455332383c34d9,down,1,0.75,0.4357,12,0,1.0051,,,,,,111,0,111,0,1,,,,,
,,942077,001,2023-07-31_20h46.56.892,arm3_eps,2022.2.5,Win32,60.20469597,615096da057ab02942bea00d,64c7fed44a04f777bb1e18ce,64c8012e3e455332383c34d9,right,1,0.75,0.4357,12,0.015751265,0.7838,,,,,,112,0,112,0,1,,,,,
,,942077,001,2023-07-31_20h46.56.892,arm3_eps,2022.2.5,Win32,60.20469597,615096da057ab02942bea00d,64c7fed44a04f777bb1e18ce,64c8012e3e455332383c34d9,right,1,0.75,0.4357,12,0.031449472,0.2339,,,,,,113,0,113,0,1,,,,,
,,942077,001,2023-07-31_20h46.56.892,arm3_eps,2022.2.5,Win32,60.20469597,615096da057ab02942bea00d,64c7fed44a04f777bb1e18ce,64c8012e3e455332383c34d9,right,1,0.75,0.4357,12,0.014678098,0.1347,,,,,,114,0,114,0,1,,,,,
,,942077,001,2023-07-31_20h46.56.892,arm3_eps,2022.2.5,Win32,60.20469597,615096da057ab02942bea00d,64c7fed44a04f777bb1e18ce,64c8012e3e455332383c34d9,right,1,0.75,0.4357,12,0.030738153,0.6337,,,,,,115,0,115,0,1,,,,,
,,942077,001,2023-07-31_20h46.56.892,arm3_eps,2022.2.5,Win32,60.20469597,615096da057ab02942bea00d,64c7fed44a04f777bb1e18ce,64c8012e3e455332383c34d9,right,1,0.75,0.4357,12,0.039524623,0.4506,,,,,,116,0,116,0,1,,,,,
,,942077,001,2023-07-31_20h46.56.892,arm3_eps,2022.2.5,Win32,60.20469597,615096da057ab02942bea00d,64c7fed44a04f777bb1e18ce,64c8012e3e455332383c34d9,down,-1,0.75,0.4357,11,0,0.4844,,,,,,117,0,117,0,1,,,,,
,,942077,001,2023-07-31_20h46.56.892,arm3_eps,2022.2.5,Win32,60.20469597,615096da057ab02942bea00d,64c7fed44a04f777bb1e18ce,64c8012e3e455332383c34d9,right,-1,0.75,0.4357,11,-0.042437357,0.7505,,,,,,118,0,118,0,1,,,,,
,,942077,001,2023-07-31_20h46.56.892,arm3_eps,2022.2.5,Win32,60.20469597,615096da057ab02942bea00d,64c7fed44a04f777bb1e18ce,64c8012e3e455332383c34d9,right,-1,0.75,0.4357,11,-0.03364005,0.3671,,,,,,119,0,119,0,1,,,,,
,,942077,001,2023-07-31_20h46.56.892,arm3_eps,2022.2.5,Win32,60.20469597,615096da057ab02942bea00d,64c7fed44a04f777bb1e18ce,64c8012e3e455332383c34d9,down,-1,0.75,0.4357,11,0,0.5004,,,,,,120,0,120,0,1,,,,,
,,942077,001,2023-07-31_20h46.56.892,arm3_eps,2022.2.5,Win32,60.20469597,615096da057ab02942bea00d,64c7fed44a04f777bb1e18ce,64c8012e3e455332383c34d9,right,-1,0.75,0.4357,11,-0.029983443,0.6332,,,,,,121,0,121,0,1,,,,,
,,942077,001,2023-07-31_20h46.56.892,arm3_eps,2022.2.5,Win32,60.20469597,615096da057ab02942bea00d,64c7fed44a04f777bb1e18ce,64c8012e3e455332383c34d9,right,-1,0.75,0.4357,11,-0.056897364,0.2167,,,,,,122,0,122,0,1,,,,,
,,942077,001,2023-07-31_20h46.56.892,arm3_eps,2022.2.5,Win32,60.20469597,615096da057ab02942bea00d,64c7fed44a04f777bb1e18ce,64c8012e3e455332383c34d9,right,-1,0.75,0.4357,11,-0.04903982,0.3674,,,,,,123,0,123,0,1,,,,,
,,942077,001,2023-07-31_20h46.56.892,arm3_eps,2022.2.5,Win32,60.20469597,615096da057ab02942bea00d,64c7fed44a04f777bb1e18ce,64c8012e3e455332383c34d9,down,-1,0.75,0.4357,12,0,0.4837,,,,,,124,0,124,0,1,,,,,
,,942077,001,2023-07-31_20h46.56.892,arm3_eps,2022.2.5,Win32,60.20469597,615096da057ab02942bea00d,64c7fed44a04f777bb1e18ce,64c8012e3e455332383c34d9,right,-1,0.75,0.4357,12,0.007804949,0.751,,,,,,125,0,125,0,1,,,,,
,,942077,001,2023-07-31_20h46.56.892,arm3_eps,2022.2.5,Win32,60.20469597,615096da057ab02942bea00d,64c7fed44a04f777bb1e18ce,64c8012e3e455332383c34d9,right,-1,0.75,0.4357,12,0.010439119,0.1342,,,,,,126,0,126,0,1,,,,,
,,942077,001,2023-07-31_20h46.56.892,arm3_eps,2022.2.5,Win32,60.20469597,615096da057ab02942bea00d,64c7fed44a04f777bb1e18ce,64c8012e3e455332383c34d9,right,-1,0.75,0.4357,12,0.018264818,0.3226,,,,,,127,0,127,0,1,,,,,
,,942077,001,2023-07-31_20h46.56.892,arm3_eps,2022.2.5,Win32,60.20469597,615096da057ab02942bea00d,64c7fed44a04f777bb1e18ce,64c8012e3e455332383c34d9,down,-1,0.75,0.4357,13,0,0.7001,,,,,,128,0,128,0,1,,,,,
,,942077,001,2023-07-31_20h46.56.892,arm3_eps,2022.2.5,Win32,60.20469597,615096da057ab02942bea00d,64c7fed44a04f777bb1e18ce,64c8012e3e455332383c34d9,right,-1,0.75,0.4357,13,-0.004029846,0.6672,,,,,,129,0,129,0,1,,,,,
,,942077,001,2023-07-31_20h46.56.892,arm3_eps,2022.2.5,Win32,60.20469597,615096da057ab02942bea00d,64c7fed44a04f777bb1e18ce,64c8012e3e455332383c34d9,right,-1,0.75,0.4357,13,0.003563746,0.1336,,,,,,130,0,130,0,1,,,,,
,,942077,001,2023-07-31_20h46.56.892,arm3_eps,2022.2.5,Win32,60.20469597,615096da057ab02942bea00d,64c7fed44a04f777bb1e18ce,64c8012e3e455332383c34d9,right,-1,0.75,0.4357,13,-0.018739307,0.9338,,,,,,131,0,131,0,1,,,,,
,,942077,001,2023-07-31_20h46.56.892,arm3_eps,2022.2.5,Win32,60.20469597,615096da057ab02942bea00d,64c7fed44a04f777bb1e18ce,64c8012e3e455332383c34d9,right,-1,0.75,0.4357,13,-0.031656988,0.3177,,,,,,132,0,132,0,1,,,,,
,,942077,001,2023-07-31_20h46.56.892,arm3_eps,2022.2.5,Win32,60.20469597,615096da057ab02942bea00d,64c7fed44a04f777bb1e18ce,64c8012e3e455332383c34d9,down,-1,0.75,0.4357,14,0,0.8167,,,,,,133,0,133,0,1,,,,,
,,942077,001,2023-07-31_20h46.56.892,arm3_eps,2022.2.5,Win32,60.20469597,615096da057ab02942bea00d,64c7fed44a04f777bb1e18ce,64c8012e3e455332383c34d9,right,-1,0.75,0.4357,14,-0.008901812,0.8996,,,,,,134,0,134,0,1,,,,,
,,942077,001,2023-07-31_20h46.56.892,arm3_eps,2022.2.5,Win32,60.20469597,615096da057ab02942bea00d,64c7fed44a04f777bb1e18ce,64c8012e3e455332383c34d9,right,-1,0.75,0.4357,14,-0.006058556,0.1008,,,,,,135,0,135,0,1,,,,,
,,942077,001,2023-07-31_20h46.56.892,arm3_eps,2022.2.5,Win32,60.20469597,615096da057ab02942bea00d,64c7fed44a04f777bb1e18ce,64c8012e3e455332383c34d9,up,-1,0.75,0.4357,13,0,0.7837,,,,,,136,0,136,0,1,,,,,
,,942077,001,2023-07-31_20h46.56.892,arm3_eps,2022.2.5,Win32,60.20469597,615096da057ab02942bea00d,64c7fed44a04f777bb1e18ce,64c8012e3e455332383c34d9,right,-1,0.75,0.4357,13,-0.001110107,0.7501,,,,,,137,0,137,0,1,,,,,
,,942077,001,2023-07-31_20h46.56.892,arm3_eps,2022.2.5,Win32,60.20469597,615096da057ab02942bea00d,64c7fed44a04f777bb1e18ce,64c8012e3e455332383c34d9,right,-1,0.75,0.4357,13,-0.012295279,0.134,,,,,,138,0,138,0,1,,,,,
,,942077,001,2023-07-31_20h46.56.892,arm3_eps,2022.2.5,Win32,60.20469597,615096da057ab02942bea00d,64c7fed44a04f777bb1e18ce,64c8012e3e455332383c34d9,right,-1,0.75,0.4357,13,-0.013417523,0.4502,,,,,,139,0,139,0,1,,,,,
,,942077,001,2023-07-31_20h46.56.892,arm3_eps,2022.2.5,Win32,60.20469597,615096da057ab02942bea00d,64c7fed44a04f777bb1e18ce,64c8012e3e455332383c34d9,right,-1,0.75,0.4357,13,-0.017095022,0.3673,,,,,,140,0,140,0,1,,,,,
,,942077,001,2023-07-31_20h46.56.892,arm3_eps,2022.2.5,Win32,60.20469597,615096da057ab02942bea00d,64c7fed44a04f777bb1e18ce,64c8012e3e455332383c34d9,up,1,0.75,0.4357,12,0,0.8344,,,,,,141,0,141,0,1,,,,,
,,942077,001,2023-07-31_20h46.56.892,arm3_eps,2022.2.5,Win32,60.20469597,615096da057ab02942bea00d,64c7fed44a04f777bb1e18ce,64c8012e3e455332383c34d9,right,1,0.75,0.4357,12,-0.040831612,0.6669,,,,,,142,0,142,0,1,,,,,
,,942077,001,2023-07-31_20h46.56.892,arm3_eps,2022.2.5,Win32,60.20469597,615096da057ab02942bea00d,64c7fed44a04f777bb1e18ce,64c8012e3e455332383c34d9,right,1,0.75,0.4357,12,-0.034014644,0.117,,,,,,143,0,143,0,1,,,,,
,,942077,001,2023-07-31_20h46.56.892,arm3_eps,2022.2.5,Win32,60.20469597,615096da057ab02942bea00d,64c7fed44a04f777bb1e18ce,64c8012e3e455332383c34d9,right,1,0.75,0.4357,12,-0.030917364,0.3338,,,,,,144,0,144,0,1,,,,,
,,942077,001,2023-07-31_20h46.56.892,arm3_eps,2022.2.5,Win32,60.20469597,615096da057ab02942bea00d,64c7fed44a04f777bb1e18ce,64c8012e3e455332383c34d9,down,1,0.75,0.4357,11,0,0.4426,,,,,,145,0,145,0,1,,,,,
,,942077,001,2023-07-31_20h46.56.892,arm3_eps,2022.2.5,Win32,60.20469597,615096da057ab02942bea00d,64c7fed44a04f777bb1e18ce,64c8012e3e455332383c34d9,right,1,0.75,0.4357,11,0.000656687,0.6506,,,,,,146,0,146,0,1,,,,,
,,942077,001,2023-07-31_20h46.56.892,arm3_eps,2022.2.5,Win32,60.20469597,615096da057ab02942bea00d,64c7fed44a04f777bb1e18ce,64c8012e3e455332383c34d9,right,1,0.75,0.4357,11,0.019699079,0.106,,,,,,147,0,147,0,1,,,,,
,,942077,001,2023-07-31_20h46.56.892,arm3_eps,2022.2.5,Win32,60.20469597,615096da057ab02942bea00d,64c7fed44a04f777bb1e18ce,64c8012e3e455332383c34d9,right,1,0.75,0.4357,11,0.018401209,0.3166,,,,,,148,0,148,0,1,,,,,
,,942077,001,2023-07-31_20h46.56.892,arm3_eps,2022.2.5,Win32,60.20469597,615096da057ab02942bea00d,64c7fed44a04f777bb1e18ce,64c8012e3e455332383c34d9,right,1,0.75,0.4357,11,0.021392686,0.3842,,,,,,149,0,149,0,1,,,,,
,,942077,001,2023-07-31_20h46.56.892,arm3_eps,2022.2.5,Win32,60.20469597,615096da057ab02942bea00d,64c7fed44a04f777bb1e18ce,64c8012e3e455332383c34d9,up,1,0.75,0.4357,11,0,0.4839,,,,,,150,0,150,0,1,,,,,
,,942077,001,2023-07-31_20h46.56.892,arm3_eps,2022.2.5,Win32,60.20469597,615096da057ab02942bea00d,64c7fed44a04f777bb1e18ce,64c8012e3e455332383c34d9,right,1,0.75,0.4357,11,0.015122848,0.8172,,,,,,151,0,151,0,1,,,,,
,,942077,001,2023-07-31_20h46.56.892,arm3_eps,2022.2.5,Win32,60.20469597,615096da057ab02942bea00d,64c7fed44a04f777bb1e18ce,64c8012e3e455332383c34d9,right,1,0.75,0.4357,11,0.021706285,0.1166,,,,,,152,0,152,0,1,,,,,
,,942077,001,2023-07-31_20h46.56.892,arm3_eps,2022.2.5,Win32,60.20469597,615096da057ab02942bea00d,64c7fed44a04f777bb1e18ce,64c8012e3e455332383c34d9,right,1,0.75,0.4357,11,0.010232913,0.3553,,,,,,153,0,153,0,1,,,,,
,,942077,001,2023-07-31_20h46.56.892,arm3_eps,2022.2.5,Win32,60.20469597,615096da057ab02942bea00d,64c7fed44a04f777bb1e18ce,64c8012e3e455332383c34d9,down,-1,0.75,0.4357,10,0,0.6667,,,,,,154,0,154,0,1,,,,,
,,942077,001,2023-07-31_20h46.56.892,arm3_eps,2022.2.5,Win32,60.20469597,615096da057ab02942bea00d,64c7fed44a04f777bb1e18ce,64c8012e3e455332383c34d9,right,-1,0.75,0.4357,10,-0.013459288,0.4911,,,,,,155,0,155,0,1,,,,,
,,942077,001,2023-07-31_20h46.56.892,arm3_eps,2022.2.5,Win32,60.20469597,615096da057ab02942bea00d,64c7fed44a04f777bb1e18ce,64c8012e3e455332383c34d9,right,-1,0.75,0.4357,10,-0.034335104,0.117,,,,,,156,0,156,0,1,,,,,
,,942077,001,2023-07-31_20h46.56.892,arm3_eps,2022.2.5,Win32,60.20469597,615096da057ab02942bea00d,64c7fed44a04f777bb1e18ce,64c8012e3e455332383c34d9,right,-1,0.75,0.4357,10,-0.043926047,0.3507,,,,,,157,0,157,0,1,,,,,
,,942077,001,2023-07-31_20h46.56.892,arm3_eps,2022.2.5,Win32,60.20469597,615096da057ab02942bea00d,64c7fed44a04f777bb1e18ce,64c8012e3e455332383c34d9,down,1,0.75,0.4357,11,0,0.6672,,,,,,158,0,158,0,1,,,,,
,,942077,001,2023-07-31_20h46.56.892,arm3_eps,2022.2.5,Win32,60.20469597,615096da057ab02942bea00d,64c7fed44a04f777bb1e18ce,64c8012e3e455332383c34d9,right,1,0.75,0.4357,11,0.016480067,0.8908,,,,,,159,0,159,0,1,,,,,
,,942077,001,2023-07-31_20h46.56.892,arm3_eps,2022.2.5,Win32,60.20469597,615096da057ab02942bea00d,64c7fed44a04f777bb1e18ce,64c8012e3e455332383c34d9,right,1,0.75,0.4357,11,0.029810817,0.1175,,,,,,160,0,160,0,1,,,,,
,,942077,001,2023-07-31_20h46.56.892,arm3_eps,2022.2.5,Win32,60.20469597,615096da057ab02942bea00d,64c7fed44a04f777bb1e18ce,64c8012e3e455332383c34d9,right,1,0.75,0.4357,11,0.051935789,0.3996,,,,,,161,0,161,0,1,,,,,
,,942077,001,2023-07-31_20h46.56.892,arm3_eps,2022.2.5,Win32,60.20469597,615096da057ab02942bea00d,64c7fed44a04f777bb1e18ce,64c8012e3e455332383c34d9,up,1,0.75,0.4357,12,0,0.4192,,,,,,162,0,162,0,1,,,,,
,,942077,001,2023-07-31_20h46.56.892,arm3_eps,2022.2.5,Win32,60.20469597,615096da057ab02942bea00d,64c7fed44a04f777bb1e18ce,64c8012e3e455332383c34d9,right,1,0.75,0.4357,12,-0.001063296,0.8128,,,,,,163,0,163,0,1,,,,,
,,942077,001,2023-07-31_20h46.56.892,arm3_eps,2022.2.5,Win32,60.20469597,615096da057ab02942bea00d,64c7fed44a04f777bb1e18ce,64c8012e3e455332383c34d9,right,1,0.75,0.4357,12,-0.002027726,0.1132,,,,,,164,0,164,0,1,,,,,
,,942077,001,2023-07-31_20h46.56.892,arm3_eps,2022.2.5,Win32,60.20469597,615096da057ab02942bea00d,64c7fed44a04f777bb1e18ce,64c8012e3e455332383c34d9,down,1,0.75,0.4357,11,0,0.731,,,,,,165,0,165,0,1,,,,,
,,942077,001,2023-07-31_20h46.56.892,arm3_eps,2022.2.5,Win32,60.20469597,615096da057ab02942bea00d,64c7fed44a04f777bb1e18ce,64c8012e3e455332383c34d9,right,1,0.75,0.4357,11,0.014712651,0.6494,,,,,,166,0,166,0,1,,,,,
,,942077,001,2023-07-31_20h46.56.892,arm3_eps,2022.2.5,Win32,60.20469597,615096da057ab02942bea00d,64c7fed44a04f777bb1e18ce,64c8012e3e455332383c34d9,right,1,0.75,0.4357,11,0.025793282,0.1318,,,,,,167,0,167,0,1,,,,,
,,942077,001,2023-07-31_20h46.56.892,arm3_eps,2022.2.5,Win32,60.20469597,615096da057ab02942bea00d,64c7fed44a04f777bb1e18ce,64c8012e3e455332383c34d9,up,-1,0.75,0.4357,12,0,0.8023,,,,,,168,0,168,0,1,,,,,
,,942077,001,2023-07-31_20h46.56.892,arm3_eps,2022.2.5,Win32,60.20469597,615096da057ab02942bea00d,64c7fed44a04f777bb1e18ce,64c8012e3e455332383c34d9,right,-1,0.75,0.4357,12,-0.038203125,0.6619,,,,,,169,0,169,0,1,,,,,
,,942077,001,2023-07-31_20h46.56.892,arm3_eps,2022.2.5,Win32,60.20469597,615096da057ab02942bea00d,64c7fed44a04f777bb1e18ce,64c8012e3e455332383c34d9,right,-1,0.75,0.4357,12,-0.05999239,0.1147,,,,,,170,0,170,0,1,,,,,
,,942077,001,2023-07-31_20h46.56.892,arm3_eps,2022.2.5,Win32,60.20469597,615096da057ab02942bea00d,64c7fed44a04f777bb1e18ce,64c8012e3e455332383c34d9,right,-1,0.75,0.4357,12,-0.069732591,0.3072,,,,,,171,0,171,0,1,,,,,
,,942077,001,2023-07-31_20h46.56.892,arm3_eps,2022.2.5,Win32,60.20469597,615096da057ab02942bea00d,64c7fed44a04f777bb1e18ce,64c8012e3e455332383c34d9,down,1,0.75,0.4357,12,0,0.2637,,,,,,172,0,172,0,1,,,,,
,,942077,001,2023-07-31_20h46.56.892,arm3_eps,2022.2.5,Win32,60.20469597,615096da057ab02942bea00d,64c7fed44a04f777bb1e18ce,64c8012e3e455332383c34d9,right,1,0.75,0.4357,12,-0.012389194,0.7925,,,,,,173,0,173,0,1,,,,,
,,942077,001,2023-07-31_20h46.56.892,arm3_eps,2022.2.5,Win32,60.20469597,615096da057ab02942bea00d,64c7fed44a04f777bb1e18ce,64c8012e3e455332383c34d9,right,1,0.75,0.4357,12,-0.027658624,0.1143,,,,,,174,0,174,0,1,,,,,
,,942077,001,2023-07-31_20h46.56.892,arm3_eps,2022.2.5,Win32,60.20469597,615096da057ab02942bea00d,64c7fed44a04f777bb1e18ce,64c8012e3e455332383c34d9,right,1,0.75,0.4357,12,-0.023775646,0.2814,,,,,,175,0,175,0,1,,,,,
,,942077,001,2023-07-31_20h46.56.892,arm3_eps,2022.2.5,Win32,60.20469597,615096da057ab02942bea00d,64c7fed44a04f777bb1e18ce,64c8012e3e455332383c34d9,down,1,0.75,0.4357,11,0,0.3158,,,,,,176,0,176,0,1,,,,,
,,942077,001,2023-07-31_20h46.56.892,arm3_eps,2022.2.5,Win32,60.20469597,615096da057ab02942bea00d,64c7fed44a04f777bb1e18ce,64c8012e3e455332383c34d9,right,1,0.75,0.4357,11,-0.001963144,0.5973,,,,,,177,0,177,0,1,,,,,
,,942077,001,2023-07-31_20h46.56.892,arm3_eps,2022.2.5,Win32,60.20469597,615096da057ab02942bea00d,64c7fed44a04f777bb1e18ce,64c8012e3e455332383c34d9,right,1,0.75,0.4357,11,0.002371571,0.1228,,,,,,178,0,178,0,1,,,,,
,,942077,001,2023-07-31_20h46.56.892,arm3_eps,2022.2.5,Win32,60.20469597,615096da057ab02942bea00d,64c7fed44a04f777bb1e18ce,64c8012e3e455332383c34d9,right,1,0.75,0.4357,11,0.017508882,0.2883,,,,,,179,0,179,0,1,,,,,
,,942077,001,2023-07-31_20h46.56.892,arm3_eps,2022.2.5,Win32,60.20469597,615096da057ab02942bea00d,64c7fed44a04f777bb1e18ce,64c8012e3e455332383c34d9,up,1,0.75,0.4357,12,0,0.7138,,,,,,180,0,180,0,1,,,,,
,,942077,001,2023-07-31_20h46.56.892,arm3_eps,2022.2.5,Win32,60.20469597,615096da057ab02942bea00d,64c7fed44a04f777bb1e18ce,64c8012e3e455332383c34d9,right,1,0.75,0.4357,12,-0.00645401,0.5276,,,,,,181,0,181,0,1,,,,,
,,942077,001,2023-07-31_20h46.56.892,arm3_eps,2022.2.5,Win32,60.20469597,615096da057ab02942bea00d,64c7fed44a04f777bb1e18ce,64c8012e3e455332383c34d9,right,1,0.75,0.4357,12,0.008483028,0.1172,,,,,,182,0,182,0,1,,,,,
,,942077,001,2023-07-31_20h46.56.892,arm3_eps,2022.2.5,Win32,60.20469597,615096da057ab02942bea00d,64c7fed44a04f777bb1e18ce,64c8012e3e455332383c34d9,right,1,0.75,0.4357,12,0.000910795,0.3038,,,,,,183,0,183,0,1,,,,,
,,942077,001,2023-07-31_20h46.56.892,arm3_eps,2022.2.5,Win32,60.20469597,615096da057ab02942bea00d,64c7fed44a04f777bb1e18ce,64c8012e3e455332383c34d9,up,1,0.75,0.4357,13,0,0.7189,,,,,,184,0,184,0,1,,,,,
,,942077,001,2023-07-31_20h46.56.892,arm3_eps,2022.2.5,Win32,60.20469597,615096da057ab02942bea00d,64c7fed44a04f777bb1e18ce,64c8012e3e455332383c34d9,right,1,0.75,0.4357,13,-0.000622322,0.7073,,,,,,185,0,185,0,1,,,,,
,,942077,001,2023-07-31_20h46.56.892,arm3_eps,2022.2.5,Win32,60.20469597,615096da057ab02942bea00d,64c7fed44a04f777bb1e18ce,64c8012e3e455332383c34d9,right,1,0.75,0.4357,13,0.026527347,0.2132,,,,,,186,0,186,0,1,,,,,
,,942077,001,2023-07-31_20h46.56.892,arm3_eps,2022.2.5,Win32,60.20469597,615096da057ab02942bea00d,64c7fed44a04f777bb1e18ce,64c8012e3e455332383c34d9,right,1,0.75,0.4357,13,0.055796763,0.401,,,,,,187,0,187,0,1,,,,,
,,942077,001,2023-07-31_20h46.56.892,arm3_eps,2022.2.5,Win32,60.20469597,615096da057ab02942bea00d,64c7fed44a04f777bb1e18ce,64c8012e3e455332383c34d9,up,1,0.75,0.4357,13,0,1.0724,,,,,,188,0,188,0,1,,,,,
,,942077,001,2023-07-31_20h46.56.892,arm3_eps,2022.2.5,Win32,60.20469597,615096da057ab02942bea00d,64c7fed44a04f777bb1e18ce,64c8012e3e455332383c34d9,down,1,0.75,0.4357,12,0,0.0006,,,,,,189,0,189,0,1,,,,,
,,942077,001,2023-07-31_20h46.56.892,arm3_eps,2022.2.5,Win32,60.20469597,615096da057ab02942bea00d,64c7fed44a04f777bb1e18ce,64c8012e3e455332383c34d9,right,1,0.75,0.4357,12,0.030454744,1.2976,,,,,,190,0,190,0,1,,,,,
,,942077,001,2023-07-31_20h46.56.892,arm3_eps,2022.2.5,Win32,60.20469597,615096da057ab02942bea00d,64c7fed44a04f777bb1e18ce,64c8012e3e455332383c34d9,right,1,0.75,0.4357,12,0.009746229,0.0972,,,,,,191,0,191,0,1,,,,,
,,942077,001,2023-07-31_20h46.56.892,arm3_eps,2022.2.5,Win32,60.20469597,615096da057ab02942bea00d,64c7fed44a04f777bb1e18ce,64c8012e3e455332383c34d9,right,1,0.75,0.4357,12,0.036082225,0.348,,,,,,192,0,192,0,1,,,,,
,,942077,001,2023-07-31_20h46.56.892,arm3_eps,2022.2.5,Win32,60.20469597,615096da057ab02942bea00d,64c7fed44a04f777bb1e18ce,64c8012e3e455332383c34d9,up,1,0.75,0.4357,13,0,0.9269,,,,,,193,0,193,0,1,,,,,
,,942077,001,2023-07-31_20h46.56.892,arm3_eps,2022.2.5,Win32,60.20469597,615096da057ab02942bea00d,64c7fed44a04f777bb1e18ce,64c8012e3e455332383c34d9,right,1,0.75,0.4357,13,-0.010090667,0.6489,,,,,,194,0,194,0,1,,,,,
,,942077,001,2023-07-31_20h46.56.892,arm3_eps,2022.2.5,Win32,60.20469597,615096da057ab02942bea00d,64c7fed44a04f777bb1e18ce,64c8012e3e455332383c34d9,right,1,0.75,0.4357,13,-0.028556199,0.1133,,,,,,195,0,195,0,1,,,,,
,,942077,001,2023-07-31_20h46.56.892,arm3_eps,2022.2.5,Win32,60.20469597,615096da057ab02942bea00d,64c7fed44a04f777bb1e18ce,64c8012e3e455332383c34d9,down,1,0.75,0.4357,12,0,1.1476,,,,,,196,0,196,0,1,,,,,
,,942077,001,2023-07-31_20h46.56.892,arm3_eps,2022.2.5,Win32,60.20469597,615096da057ab02942bea00d,64c7fed44a04f777bb1e18ce,64c8012e3e455332383c34d9,right,1,0.75,0.4357,12,0.002092623,0.6624,,,,,,197,0,197,0,1,,,,,
,,942077,001,2023-07-31_20h46.56.892,arm3_eps,2022.2.5,Win32,60.20469597,615096da057ab02942bea00d,64c7fed44a04f777bb1e18ce,64c8012e3e455332383c34d9,right,1,0.75,0.4357,12,0.017879201,0.1195,,,,,,198,0,198,0,1,,,,,
,,942077,001,2023-07-31_20h46.56.892,arm3_eps,2022.2.5,Win32,60.20469597,615096da057ab02942bea00d,64c7fed44a04f777bb1e18ce,64c8012e3e455332383c34d9,right,1,0.75,0.4357,12,-0.001854407,0.3709,,,,,,199,0,199,0,1,,,,,
,,942077,001,2023-07-31_20h46.56.892,arm3_eps,2022.2.5,Win32,60.20469597,615096da057ab02942bea00d,64c7fed44a04f777bb1e18ce,64c8012e3e455332383c34d9,right,1,0.75,0.4357,12,0.019606922,0.7807,,,,,,200,0,200,0,1,,,,,
,,942077,001,2023-07-31_20h46.56.892,arm3_eps,2022.2.5,Win32,60.20469597,615096da057ab02942bea00d,64c7fed44a04f777bb1e18ce,64c8012e3e455332383c34d9,up,1,0.75,0.4357,13,0,0.5155,,,,,,201,0,201,0,1,,,,,
,,942077,001,2023-07-31_20h46.56.892,arm3_eps,2022.2.5,Win32,60.20469597,615096da057ab02942bea00d,64c7fed44a04f777bb1e18ce,64c8012e3e455332383c34d9,right,1,0.75,0.4357,13,0.026088828,0.5825,,,,,,202,0,202,0,1,,,,,
,,942077,001,2023-07-31_20h46.56.892,arm3_eps,2022.2.5,Win32,60.20469597,615096da057ab02942bea00d,64c7fed44a04f777bb1e18ce,64c8012e3e455332383c34d9,right,1,0.75,0.4357,13,0.029202624,0.1202,,,,,,203,0,203,0,1,,,,,
,,942077,001,2023-07-31_20h46.56.892,arm3_eps,2022.2.5,Win32,60.20469597,615096da057ab02942bea00d,64c7fed44a04f777bb1e18ce,64c8012e3e455332383c34d9,right,1,0.75,0.4357,13,0.053641194,0.2857,,,,,,204,0,204,0,1,,,,,
,,942077,001,2023-07-31_20h46.56.892,arm3_eps,2022.2.5,Win32,60.20469597,615096da057ab02942bea00d,64c7fed44a04f777bb1e18ce,64c8012e3e455332383c34d9,up,1,0.75,0.4357,13,0,0.4478,,,,,,205,0,205,0,1,,,,,
,,942077,001,2023-07-31_20h46.56.892,arm3_eps,2022.2.5,Win32,60.20469597,615096da057ab02942bea00d,64c7fed44a04f777bb1e18ce,64c8012e3e455332383c34d9,right,1,0.75,0.4357,13,0.024177406,0.5957,,,,,,206,0,206,0,1,,,,,
,,942077,001,2023-07-31_20h46.56.892,arm3_eps,2022.2.5,Win32,60.20469597,615096da057ab02942bea00d,64c7fed44a04f777bb1e18ce,64c8012e3e455332383c34d9,right,1,0.75,0.4357,13,0.048623352,0.1137,,,,,,207,0,207,0,1,,,,,
,,942077,001,2023-07-31_20h46.56.892,arm3_eps,2022.2.5,Win32,60.20469597,615096da057ab02942bea00d,64c7fed44a04f777bb1e18ce,64c8012e3e455332383c34d9,right,1,0.75,0.4357,13,0.044539811,0.2721,,,,,,208,0,208,0,1,,,,,
,,942077,001,2023-07-31_20h46.56.892,arm3_eps,2022.2.5,Win32,60.20469597,615096da057ab02942bea00d,64c7fed44a04f777bb1e18ce,64c8012e3e455332383c34d9,up,-1,0.75,0.4357,14,0,0.6219,,,,,,209,0,209,0,1,,,,,
,,942077,001,2023-07-31_20h46.56.892,arm3_eps,2022.2.5,Win32,60.20469597,615096da057ab02942bea00d,64c7fed44a04f777bb1e18ce,64c8012e3e455332383c34d9,right,-1,0.75,0.4357,14,-0.028789825,0.5326,,,,,,210,0,210,0,1,,,,,
,,942077,001,2023-07-31_20h46.56.892,arm3_eps,2022.2.5,Win32,60.20469597,615096da057ab02942bea00d,64c7fed44a04f777bb1e18ce,64c8012e3e455332383c34d9,right,-1,0.75,0.4357,14,-0.021418273,0.1304,,,,,,211,0,211,0,1,,,,,
,,942077,001,2023-07-31_20h46.56.892,arm3_eps,2022.2.5,Win32,60.20469597,615096da057ab02942bea00d,64c7fed44a04f777bb1e18ce,64c8012e3e455332383c34d9,right,-1,0.75,0.4357,14,-0.061026451,0.3389,,,,,,212,0,212,0,1,,,,,
,,942077,001,2023-07-31_20h46.56.892,arm3_eps,2022.2.5,Win32,60.20469597,615096da057ab02942bea00d,64c7fed44a04f777bb1e18ce,64c8012e3e455332383c34d9,down,-1,0.75,0.4357,14,0,0.3563,,,,,,213,0,213,0,1,,,,,
,,942077,001,2023-07-31_20h46.56.892,arm3_eps,2022.2.5,Win32,60.20469597,615096da057ab02942bea00d,64c7fed44a04f777bb1e18ce,64c8012e3e455332383c34d9,right,-1,0.75,0.4357,14,-0.006920197,0.7301,,,,,,214,0,214,0,1,,,,,
,,942077,001,2023-07-31_20h46.56.892,arm3_eps,2022.2.5,Win32,60.20469597,615096da057ab02942bea00d,64c7fed44a04f777bb1e18ce,64c8012e3e455332383c34d9,right,-1,0.75,0.4357,14,-0.002615006,0.1144,,,,,,215,0,215,0,1,,,,,
,,942077,001,2023-07-31_20h46.56.892,arm3_eps,2022.2.5,Win32,60.20469597,615096da057ab02942bea00d,64c7fed44a04f777bb1e18ce,64c8012e3e455332383c34d9,right,-1,0.75,0.4357,14,-0.006083813,0.2872,,,,,,216,0,216,0,1,,,,,
,,942077,001,2023-07-31_20h46.56.892,arm3_eps,2022.2.5,Win32,60.20469597,615096da057ab02942bea00d,64c7fed44a04f777bb1e18ce,64c8012e3e455332383c34d9,up,-1,0.75,0.4357,14,0,0.7309,,,,,,217,0,217,0,1,,,,,
,,942077,001,2023-07-31_20h46.56.892,arm3_eps,2022.2.5,Win32,60.20469597,615096da057ab02942bea00d,64c7fed44a04f777bb1e18ce,64c8012e3e455332383c34d9,right,-1,0.75,0.4357,14,-0.000832283,0.5486,,,,,,218,0,218,0,1,,,,,
,,942077,001,2023-07-31_20h46.56.892,arm3_eps,2022.2.5,Win32,60.20469597,615096da057ab02942bea00d,64c7fed44a04f777bb1e18ce,64c8012e3e455332383c34d9,right,-1,0.75,0.4357,14,-0.012171534,0.1149,,,,,,219,0,219,0,1,,,,,
,,942077,001,2023-07-31_20h46.56.892,arm3_eps,2022.2.5,Win32,60.20469597,615096da057ab02942bea00d,64c7fed44a04f777bb1e18ce,64c8012e3e455332383c34d9,right,-1,0.75,0.4357,14,-0.005843399,0.3144,,,,,,220,0,220,0,1,,,,,
,,942077,001,2023-07-31_20h46.56.892,arm3_eps,2022.2.5,Win32,60.20469597,615096da057ab02942bea00d,64c7fed44a04f777bb1e18ce,64c8012e3e455332383c34d9,down,1,0.75,0.4357,15,0,0.5808,,,,,,221,0,221,0,1,,,,,
,,942077,001,2023-07-31_20h46.56.892,arm3_eps,2022.2.5,Win32,60.20469597,615096da057ab02942bea00d,64c7fed44a04f777bb1e18ce,64c8012e3e455332383c34d9,right,1,0.75,0.4357,15,0.030138666,0.4948,,,,,,222,0,222,0,1,,,,,
,,942077,001,2023-07-31_20h46.56.892,arm3_eps,2022.2.5,Win32,60.20469597,615096da057ab02942bea00d,64c7fed44a04f777bb1e18ce,64c8012e3e455332383c34d9,right,1,0.75,0.4357,15,0.007035804,0.1121,,,,,,223,0,223,0,1,,,,,
,,942077,001,2023-07-31_20h46.56.892,arm3_eps,2022.2.5,Win32,60.20469597,615096da057ab02942bea00d,64c7fed44a04f777bb1e18ce,64c8012e3e455332383c34d9,right,1,0.75,0.4357,15,0.027999232,0.3035,,,,,,224,0,224,0,1,,,,,
,,942077,001,2023-07-31_20h46.56.892,arm3_eps,2022.2.5,Win32,60.20469597,615096da057ab02942bea00d,64c7fed44a04f777bb1e18ce,64c8012e3e455332383c34d9,up,-1,0.75,0.4357,16,0,0.5665,,,,,,225,0,225,0,1,,,,,
,,942077,001,2023-07-31_20h46.56.892,arm3_eps,2022.2.5,Win32,60.20469597,615096da057ab02942bea00d,64c7fed44a04f777bb1e18ce,64c8012e3e455332383c34d9,right,-1,0.75,0.4357,16,-0.028510215,0.8682,,,,,,226,0,226,0,1,,,,,
,,942077,001,2023-07-31_20h46.56.892,arm3_eps,2022.2.5,Win32,60.20469597,615096da057ab02942bea00d,64c7fed44a04f777bb1e18ce,64c8012e3e455332383c34d9,right,-1,0.75,0.4357,16,-0.036897333,0.1219,,,,,,227,0,227,0,1,,,,,
,,942077,001,2023-07-31_20h46.56.892,arm3_eps,2022.2.5,Win32,60.20469597,615096da057ab02942bea00d,64c7fed44a04f777bb1e18ce,64c8012e3e455332383c34d9,right,-1,0.75,0.4357,16,-0.062260394,0.4644,,,,,,228,0,228,0,1,,,,,
,,942077,001,2023-07-31_20h46.56.892,arm3_eps,2022.2.5,Win32,60.20469597,615096da057ab02942bea00d,64c7fed44a04f777bb1e18ce,64c8012e3e455332383c34d9,down,-1,0.75,0.4357,17,0,0.2998,,,,,,229,0,229,0,1,,,,,
,,942077,001,2023-07-31_20h46.56.892,arm3_eps,2022.2.5,Win32,60.20469597,615096da057ab02942bea00d,64c7fed44a04f777bb1e18ce,64c8012e3e455332383c34d9,right,-1,0.75,0.4357,17,-0.012875129,0.6985,,,,,,230,0,230,0,1,,,,,
,,942077,001,2023-07-31_20h46.56.892,arm3_eps,2022.2.5,Win32,60.20469597,615096da057ab02942bea00d,64c7fed44a04f777bb1e18ce,64c8012e3e455332383c34d9,right,-1,0.75,0.4357,17,-0.019695559,0.1151,,,,,,231,0,231,0,1,,,,,
,,942077,001,2023-07-31_20h46.56.892,arm3_eps,2022.2.5,Win32,60.20469597,615096da057ab02942bea00d,64c7fed44a04f777bb1e18ce,64c8012e3e455332383c34d9,down,-1,0.75,0.4357,18,0,0.6532,,,,,,232,0,232,0,1,,,,,
,,942077,001,2023-07-31_20h46.56.892,arm3_eps,2022.2.5,Win32,60.20469597,615096da057ab02942bea00d,64c7fed44a04f777bb1e18ce,64c8012e3e455332383c34d9,right,-1,0.75,0.4357,18,-0.016166523,0.529,,,,,,233,0,233,0,1,,,,,
,,942077,001,2023-07-31_20h46.56.892,arm3_eps,2022.2.5,Win32,60.20469597,615096da057ab02942bea00d,64c7fed44a04f777bb1e18ce,64c8012e3e455332383c34d9,right,-1,0.75,0.4357,18,-0.027930896,0.1138,,,,,,234,0,234,0,1,,,,,
,,942077,001,2023-07-31_20h46.56.892,arm3_eps,2022.2.5,Win32,60.20469597,615096da057ab02942bea00d,64c7fed44a04f777bb1e18ce,64c8012e3e455332383c34d9,down,-1,0.75,0.4357,18,0,0.6371,,,,,,235,0,235,0,1,,,,,
,,942077,001,2023-07-31_20h46.56.892,arm3_eps,2022.2.5,Win32,60.20469597,615096da057ab02942bea00d,64c7fed44a04f777bb1e18ce,64c8012e3e455332383c34d9,right,-1,0.75,0.4357,18,-0.00162583,0.729,,,,,,236,0,236,0,1,,,,,
,,942077,001,2023-07-31_20h46.56.892,arm3_eps,2022.2.5,Win32,60.20469597,615096da057ab02942bea00d,64c7fed44a04f777bb1e18ce,64c8012e3e455332383c34d9,right,-1,0.75,0.4357,18,-0.035590269,0.1143,,,,,,237,0,237,0,1,,,,,
,,942077,001,2023-07-31_20h46.56.892,arm3_eps,2022.2.5,Win32,60.20469597,615096da057ab02942bea00d,64c7fed44a04f777bb1e18ce,64c8012e3e455332383c34d9,right,-1,0.75,0.4357,18,-0.041274599,0.3483,,,,,,238,0,238,0,1,,,,,
,,942077,001,2023-07-31_20h46.56.892,arm3_eps,2022.2.5,Win32,60.20469597,615096da057ab02942bea00d,64c7fed44a04f777bb1e18ce,64c8012e3e455332383c34d9,down,1,0.75,0.4357,19,0,0.3641,,,,,,239,0,239,0,1,,,,,
,,942077,001,2023-07-31_20h46.56.892,arm3_eps,2022.2.5,Win32,60.20469597,615096da057ab02942bea00d,64c7fed44a04f777bb1e18ce,64c8012e3e455332383c34d9,right,1,0.75,0.4357,19,0.025739091,0.5784,,,,,,240,0,240,0,1,,,,,
,,942077,001,2023-07-31_20h46.56.892,arm3_eps,2022.2.5,Win32,60.20469597,615096da057ab02942bea00d,64c7fed44a04f777bb1e18ce,64c8012e3e455332383c34d9,right,1,0.75,0.4357,19,0.071864395,0.1139,,,,,,241,0,241,0,1,,,,,
,,942077,001,2023-07-31_20h46.56.892,arm3_eps,2022.2.5,Win32,60.20469597,615096da057ab02942bea00d,64c7fed44a04f777bb1e18ce,64c8012e3e455332383c34d9,up,-1,0.75,0.4357,20,0,0.7167,,,,,,242,0,242,0,1,,,,,
,,942077,001,2023-07-31_20h46.56.892,arm3_eps,2022.2.5,Win32,60.20469597,615096da057ab02942bea00d,64c7fed44a04f777bb1e18ce,64c8012e3e455332383c34d9,right,-1,0.75,0.4357,20,-0.006669266,0.6339,,,,,,243,0,243,0,1,,,,,
,,942077,001,2023-07-31_20h46.56.892,arm3_eps,2022.2.5,Win32,60.20469597,615096da057ab02942bea00d,64c7fed44a04f777bb1e18ce,64c8012e3e455332383c34d9,right,-1,0.75,0.4357,20,-0.045320564,0.1311,,,,,,244,0,244,0,1,,,,,
,,942077,001,2023-07-31_20h46.56.892,arm3_eps,2022.2.5,Win32,60.20469597,615096da057ab02942bea00d,64c7fed44a04f777bb1e18ce,64c8012e3e455332383c34d9,down,-1,0.75,0.4357,21,0,0.887,,,,,,245,0,245,0,1,,,,,
,,942077,001,2023-07-31_20h46.56.892,arm3_eps,2022.2.5,Win32,60.20469597,615096da057ab02942bea00d,64c7fed44a04f777bb1e18ce,64c8012e3e455332383c34d9,right,-1,0.75,0.4357,21,-0.009129137,0.6156,,,,,,246,0,246,0,1,,,,,
,,942077,001,2023-07-31_20h46.56.892,arm3_eps,2022.2.5,Win32,60.20469597,615096da057ab02942bea00d,64c7fed44a04f777bb1e18ce,64c8012e3e455332383c34d9,right,-1,0.75,0.4357,21,-0.020472029,0.1291,,,,,,247,0,247,0,1,,,,,
,,942077,001,2023-07-31_20h46.56.892,arm3_eps,2022.2.5,Win32,60.20469597,615096da057ab02942bea00d,64c7fed44a04f777bb1e18ce,64c8012e3e455332383c34d9,right,-1,0.75,0.4357,21,-0.027977632,0.3179,,,,,,248,0,248,0,1,,,,,
,,942077,001,2023-07-31_20h46.56.892,arm3_eps,2022.2.5,Win32,60.20469597,615096da057ab02942bea00d,64c7fed44a04f777bb1e18ce,64c8012e3e455332383c34d9,down,1,0.75,0.4357,22,0,0.3463,,,,,,249,0,249,0,1,,,,,
,,942077,001,2023-07-31_20h46.56.892,arm3_eps,2022.2.5,Win32,60.20469597,615096da057ab02942bea00d,64c7fed44a04f777bb1e18ce,64c8012e3e455332383c34d9,right,1,0.75,0.4357,22,-0.012682187,0.5789,,,,,,250,0,250,0,1,,,,,
,,942077,001,2023-07-31_20h46.56.892,arm3_eps,2022.2.5,Win32,60.20469597,615096da057ab02942bea00d,64c7fed44a04f777bb1e18ce,64c8012e3e455332383c34d9,right,1,0.75,0.4357,22,-0.01861351,0.1245,,,,,,251,0,251,0,1,,,,,
,,942077,001,2023-07-31_20h46.56.892,arm3_eps,2022.2.5,Win32,60.20469597,615096da057ab02942bea00d,64c7fed44a04f777bb1e18ce,64c8012e3e455332383c34d9,right,1,0.75,0.4357,22,0.003221527,0.5409,,,,,,252,0,252,0,1,,,,,
,,942077,001,2023-07-31_20h46.56.892,arm3_eps,2022.2.5,Win32,60.20469597,615096da057ab02942bea00d,64c7fed44a04f777bb1e18ce,64c8012e3e455332383c34d9,up,-1,0.75,0.4357,23,0,0.4667,,,,,,253,0,253,0,1,,,,,
,,942077,001,2023-07-31_20h46.56.892,arm3_eps,2022.2.5,Win32,60.20469597,615096da057ab02942bea00d,64c7fed44a04f777bb1e18ce,64c8012e3e455332383c34d9,right,-1,0.75,0.4357,23,-0.022243466,0.8841,,,,,,254,0,254,0,1,,,,,
,,942077,001,2023-07-31_20h46.56.892,arm3_eps,2022.2.5,Win32,60.20469597,615096da057ab02942bea00d,64c7fed44a04f777bb1e18ce,64c8012e3e455332383c34d9,right,-1,0.75,0.4357,23,-0.037754733,0.1208,,,,,,255,0,255,0,1,,,,,
,,942077,001,2023-07-31_20h46.56.892,arm3_eps,2022.2.5,Win32,60.20469597,615096da057ab02942bea00d,64c7fed44a04f777bb1e18ce,64c8012e3e455332383c34d9,right,-1,0.75,0.4357,23,-0.017955602,1.1701,,,,,,256,0,256,0,1,,,,,
,,942077,001,2023-07-31_20h46.56.892,arm3_eps,2022.2.5,Win32,60.20469597,615096da057ab02942bea00d,64c7fed44a04f777bb1e18ce,64c8012e3e455332383c34d9,down,-1,0.75,0.4357,24,0,0.9972,,,,,,257,0,257,0,1,,,,,
,,942077,001,2023-07-31_20h46.56.892,arm3_eps,2022.2.5,Win32,60.20469597,615096da057ab02942bea00d,64c7fed44a04f777bb1e18ce,64c8012e3e455332383c34d9,right,-1,0.75,0.4357,24,-0.017817182,0.5592,,,,,,258,0,258,0,1,,,,,
