space_bar.keys,space_bar.rt,participant,session,date,expName,psychopyVersion,OS,frameRate,PROLIFIC_PID,STUDY_ID,SESSION_ID,resp.keys,state,q_prob,eps_prob,score,price,resp.rt,train.thisRepN,train.thisTrialN,train.thisN,train.thisIndex,train.ran,steps.thisRepN,steps.thisTrialN,steps.thisN,steps.thisIndex,steps.ran,blocks.thisRepN,blocks.thisTrialN,blocks.thisN,blocks.thisIndex,blocks.ran
space,10.2951,979450,001,2023-07-31_20h48.02.020,arm3_eps,2022.2.5,Win32,60.06366749,611d05c997db7c2653864ff4,64c7fed44a04f777bb1e18ce,64c801637be46e9a4f7b0db9,,,,,,,,,,,,,,,,,,,,,,
space,2.8019,979450,001,2023-07-31_20h48.02.020,arm3_eps,2022.2.5,Win32,60.06366749,611d05c997db7c2653864ff4,64c7fed44a04f777bb1e18ce,64c801637be46e9a4f7b0db9,,,,,,,,,,,,,,,,,,,,,,
space,14.1393,979450,001,2023-07-31_20h48.02.020,arm3_eps,2022.2.5,Win32,60.06366749,611d05c997db7c2653864ff4,64c7fed44a04f777bb1e18ce,64c801637be46e9a4f7b0db9,,,,,,,,,,,,,,,,,,,,,,
space,18.5621,979450,001,2023-07-31_20h48.02.020,arm3_eps,2022.2.5,Win32,60.06366749,611d05c997db7c2653864ff4,64c7fed44a04f777bb1e18ce,64c801637be46e9a4f7b0db9,,,,,,,,,,,,,,,,,,,,,,
space,20.1888,979450,001,2023-07-31_20h48.02.020,arm3_eps,2022.2.5,Win32,60.06366749,611d05c997db7c2653864ff4,64c7fed44a04f777bb1e18ce,64c801637be46e9a4f7b0db9,,,,,,,,,,,,,,,,,,,,,,
space,9.8986,979450,001,2023-07-31_20h48.02.020,arm3_eps,2022.2.5,Win32,60.06366749,611d05c997db7c2653864ff4,64c7fed44a04f777bb1e18ce,64c801637be46e9a4f7b0db9,,,,,,,,,,,,,,,,,,,,,,
space,2.3163,979450,001,2023-07-31_20h48.02.020,arm3_eps,2022.2.5,Win32,60.06366749,611d05c997db7c2653864ff4,64c7fed44a04f777bb1e18ce,64c801637be46e9a4f7b0db9,,,,,,,,,,,,,,,,,,,,,,
,,979450,001,2023-07-31_20h48.02.020,arm3_eps,2022.2.5,Win32,60.06366749,611d05c997db7c2653864ff4,64c7fed44a04f777bb1e18ce,64c801637be46e9a4f7b0db9,down,1,1,0.2429,-1,0,9.8087,0,0,0,0,1,,,,,,,,,,
,,979450,001,2023-07-31_20h48.02.020,arm3_eps,2022.2.5,Win32,60.06366749,611d05c997db7c2653864ff4,64c7fed44a04f777bb1e18ce,64c801637be46e9a4f7b0db9,up,-1,1,0.2429,0,0,5.7116,1,0,1,0,1,,,,,,,,,,
,,979450,001,2023-07-31_20h48.02.020,arm3_eps,2022.2.5,Win32,60.06366749,611d05c997db7c2653864ff4,64c7fed44a04f777bb1e18ce,64c801637be46e9a4f7b0db9,down,-1,1,0.2429,1,0,2.0198,2,0,2,0,1,,,,,,,,,,
,,979450,001,2023-07-31_20h48.02.020,arm3_eps,2022.2.5,Win32,60.06366749,611d05c997db7c2653864ff4,64c7fed44a04f777bb1e18ce,64c801637be46e9a4f7b0db9,up,-1,1,0.2429,0,0,4.0324,3,0,3,0,1,,,,,,,,,,
,,979450,001,2023-07-31_20h48.02.020,arm3_eps,2022.2.5,Win32,60.06366749,611d05c997db7c2653864ff4,64c7fed44a04f777bb1e18ce,64c801637be46e9a4f7b0db9,down,-1,1,0.2429,1,0,2.7986,4,0,4,0,1,,,,,,,,,,
,,979450,001,2023-07-31_20h48.02.020,arm3_eps,2022.2.5,Win32,60.06366749,611d05c997db7c2653864ff4,64c7fed44a04f777bb1e18ce,64c801637be46e9a4f7b0db9,down,-1,1,0.2429,2,0,2.3078,5,0,5,0,1,,,,,,,,,,
,,979450,001,2023-07-31_20h48.02.020,arm3_eps,2022.2.5,Win32,60.06366749,611d05c997db7c2653864ff4,64c7fed44a04f777bb1e18ce,64c801637be46e9a4f7b0db9,up,-1,1,0.2429,1,0,3.6545,6,0,6,0,1,,,,,,,,,,
,,979450,001,2023-07-31_20h48.02.020,arm3_eps,2022.2.5,Win32,60.06366749,611d05c997db7c2653864ff4,64c7fed44a04f777bb1e18ce,64c801637be46e9a4f7b0db9,down,-1,1,0.2429,2,0,1.4064,7,0,7,0,1,,,,,,,,,,
,,979450,001,2023-07-31_20h48.02.020,arm3_eps,2022.2.5,Win32,60.06366749,611d05c997db7c2653864ff4,64c7fed44a04f777bb1e18ce,64c801637be46e9a4f7b0db9,up,-1,1,0.2429,1,0,1.2095,8,0,8,0,1,,,,,,,,,,
,,979450,001,2023-07-31_20h48.02.020,arm3_eps,2022.2.5,Win32,60.06366749,611d05c997db7c2653864ff4,64c7fed44a04f777bb1e18ce,64c801637be46e9a4f7b0db9,down,-1,1,0.2429,2,0,1.5271,9,0,9,0,1,,,,,,,,,,
,,979450,001,2023-07-31_20h48.02.020,arm3_eps,2022.2.5,Win32,60.06366749,611d05c997db7c2653864ff4,64c7fed44a04f777bb1e18ce,64c801637be46e9a4f7b0db9,up,-1,1,0.2429,1,0,2.3059,10,0,10,0,1,,,,,,,,,,
,,979450,001,2023-07-31_20h48.02.020,arm3_eps,2022.2.5,Win32,60.06366749,611d05c997db7c2653864ff4,64c7fed44a04f777bb1e18ce,64c801637be46e9a4f7b0db9,down,-1,1,0.2429,2,0,2.1381,11,0,11,0,1,,,,,,,,,,
,,979450,001,2023-07-31_20h48.02.020,arm3_eps,2022.2.5,Win32,60.06366749,611d05c997db7c2653864ff4,64c7fed44a04f777bb1e18ce,64c801637be46e9a4f7b0db9,down,-1,1,0.2429,3,0,1.2184,12,0,12,0,1,,,,,,,,,,
,,979450,001,2023-07-31_20h48.02.020,arm3_eps,2022.2.5,Win32,60.06366749,611d05c997db7c2653864ff4,64c7fed44a04f777bb1e18ce,64c801637be46e9a4f7b0db9,up,-1,1,0.2429,2,0,1.2211,13,0,13,0,1,,,,,,,,,,
,,979450,001,2023-07-31_20h48.02.020,arm3_eps,2022.2.5,Win32,60.06366749,611d05c997db7c2653864ff4,64c7fed44a04f777bb1e18ce,64c801637be46e9a4f7b0db9,down,1,1,0.2429,3,0,1.3558,14,0,14,0,1,,,,,,,,,,
,,979450,001,2023-07-31_20h48.02.020,arm3_eps,2022.2.5,Win32,60.06366749,611d05c997db7c2653864ff4,64c7fed44a04f777bb1e18ce,64c801637be46e9a4f7b0db9,up,1,1,0.2429,4,0,1.8216,15,0,15,0,1,,,,,,,,,,
,,979450,001,2023-07-31_20h48.02.020,arm3_eps,2022.2.5,Win32,60.06366749,611d05c997db7c2653864ff4,64c7fed44a04f777bb1e18ce,64c801637be46e9a4f7b0db9,up,1,1,0.2429,5,0,1.6357,16,0,16,0,1,,,,,,,,,,
,,979450,001,2023-07-31_20h48.02.020,arm3_eps,2022.2.5,Win32,60.06366749,611d05c997db7c2653864ff4,64c7fed44a04f777bb1e18ce,64c801637be46e9a4f7b0db9,up,1,1,0.2429,6,0,1.8872,17,0,17,0,1,,,,,,,,,,
,,979450,001,2023-07-31_20h48.02.020,arm3_eps,2022.2.5,Win32,60.06366749,611d05c997db7c2653864ff4,64c7fed44a04f777bb1e18ce,64c801637be46e9a4f7b0db9,down,1,1,0.2429,5,0,1.1534,18,0,18,0,1,,,,,,,,,,
,,979450,001,2023-07-31_20h48.02.020,arm3_eps,2022.2.5,Win32,60.06366749,611d05c997db7c2653864ff4,64c7fed44a04f777bb1e18ce,64c801637be46e9a4f7b0db9,up,1,1,0.2429,6,0,1.6712,19,0,19,0,1,,,,,,,,,,
,,979450,001,2023-07-31_20h48.02.020,arm3_eps,2022.2.5,Win32,60.06366749,611d05c997db7c2653864ff4,64c7fed44a04f777bb1e18ce,64c801637be46e9a4f7b0db9,up,1,1,0.2429,7,0,1.4163,20,0,20,0,1,,,,,,,,,,
,,979450,001,2023-07-31_20h48.02.020,arm3_eps,2022.2.5,Win32,60.06366749,611d05c997db7c2653864ff4,64c7fed44a04f777bb1e18ce,64c801637be46e9a4f7b0db9,up,1,1,0.2429,8,0,1.6928,21,0,21,0,1,,,,,,,,,,
,,979450,001,2023-07-31_20h48.02.020,arm3_eps,2022.2.5,Win32,60.06366749,611d05c997db7c2653864ff4,64c7fed44a04f777bb1e18ce,64c801637be46e9a4f7b0db9,up,1,1,0.2429,9,0,1.9119,22,0,22,0,1,,,,,,,,,,
,,979450,001,2023-07-31_20h48.02.020,arm3_eps,2022.2.5,Win32,60.06366749,611d05c997db7c2653864ff4,64c7fed44a04f777bb1e18ce,64c801637be46e9a4f7b0db9,up,1,1,0.2429,10,0,1.8087,23,0,23,0,1,,,,,,,,,,
,,979450,001,2023-07-31_20h48.02.020,arm3_eps,2022.2.5,Win32,60.06366749,611d05c997db7c2653864ff4,64c7fed44a04f777bb1e18ce,64c801637be46e9a4f7b0db9,up,1,1,0.2429,11,0,1.4752,24,0,24,0,1,,,,,,,,,,
,,979450,001,2023-07-31_20h48.02.020,arm3_eps,2022.2.5,Win32,60.06366749,611d05c997db7c2653864ff4,64c7fed44a04f777bb1e18ce,64c801637be46e9a4f7b0db9,up,1,1,0.2429,12,0,1.341,25,0,25,0,1,,,,,,,,,,
,,979450,001,2023-07-31_20h48.02.020,arm3_eps,2022.2.5,Win32,60.06366749,611d05c997db7c2653864ff4,64c7fed44a04f777bb1e18ce,64c801637be46e9a4f7b0db9,up,1,1,0.2429,13,0,1.3863,26,0,26,0,1,,,,,,,,,,
,,979450,001,2023-07-31_20h48.02.020,arm3_eps,2022.2.5,Win32,60.06366749,611d05c997db7c2653864ff4,64c7fed44a04f777bb1e18ce,64c801637be46e9a4f7b0db9,up,1,1,0.2429,14,0,1.3898,27,0,27,0,1,,,,,,,,,,
,,979450,001,2023-07-31_20h48.02.020,arm3_eps,2022.2.5,Win32,60.06366749,611d05c997db7c2653864ff4,64c7fed44a04f777bb1e18ce,64c801637be46e9a4f7b0db9,up,1,1,0.2429,15,0,1.0535,28,0,28,0,1,,,,,,,,,,
,,979450,001,2023-07-31_20h48.02.020,arm3_eps,2022.2.5,Win32,60.06366749,611d05c997db7c2653864ff4,64c7fed44a04f777bb1e18ce,64c801637be46e9a4f7b0db9,up,1,1,0.2429,16,0,1.5395,29,0,29,0,1,,,,,,,,,,
,,979450,001,2023-07-31_20h48.02.020,arm3_eps,2022.2.5,Win32,60.06366749,611d05c997db7c2653864ff4,64c7fed44a04f777bb1e18ce,64c801637be46e9a4f7b0db9,down,1,1,0.2429,15,0,1.2393,30,0,30,0,1,,,,,,,,,,
,,979450,001,2023-07-31_20h48.02.020,arm3_eps,2022.2.5,Win32,60.06366749,611d05c997db7c2653864ff4,64c7fed44a04f777bb1e18ce,64c801637be46e9a4f7b0db9,up,1,1,0.2429,16,0,0.9886,31,0,31,0,1,,,,,,,,,,
,,979450,001,2023-07-31_20h48.02.020,arm3_eps,2022.2.5,Win32,60.06366749,611d05c997db7c2653864ff4,64c7fed44a04f777bb1e18ce,64c801637be46e9a4f7b0db9,up,-1,1,0.2429,17,0,1.1286,32,0,32,0,1,,,,,,,,,,
,,979450,001,2023-07-31_20h48.02.020,arm3_eps,2022.2.5,Win32,60.06366749,611d05c997db7c2653864ff4,64c7fed44a04f777bb1e18ce,64c801637be46e9a4f7b0db9,down,-1,1,0.2429,18,0,1.3873,33,0,33,0,1,,,,,,,,,,
,,979450,001,2023-07-31_20h48.02.020,arm3_eps,2022.2.5,Win32,60.06366749,611d05c997db7c2653864ff4,64c7fed44a04f777bb1e18ce,64c801637be46e9a4f7b0db9,down,-1,1,0.2429,19,0,1.1239,34,0,34,0,1,,,,,,,,,,
,,979450,001,2023-07-31_20h48.02.020,arm3_eps,2022.2.5,Win32,60.06366749,611d05c997db7c2653864ff4,64c7fed44a04f777bb1e18ce,64c801637be46e9a4f7b0db9,down,1,1,0.2429,20,0,1.3245,35,0,35,0,1,,,,,,,,,,
,,979450,001,2023-07-31_20h48.02.020,arm3_eps,2022.2.5,Win32,60.06366749,611d05c997db7c2653864ff4,64c7fed44a04f777bb1e18ce,64c801637be46e9a4f7b0db9,up,-1,1,0.2429,21,0,1.0808,36,0,36,0,1,,,,,,,,,,
,,979450,001,2023-07-31_20h48.02.020,arm3_eps,2022.2.5,Win32,60.06366749,611d05c997db7c2653864ff4,64c7fed44a04f777bb1e18ce,64c801637be46e9a4f7b0db9,down,1,1,0.2429,22,0,1.1067,37,0,37,0,1,,,,,,,,,,
,,979450,001,2023-07-31_20h48.02.020,arm3_eps,2022.2.5,Win32,60.06366749,611d05c997db7c2653864ff4,64c7fed44a04f777bb1e18ce,64c801637be46e9a4f7b0db9,up,-1,1,0.2429,23,0,1.106,38,0,38,0,1,,,,,,,,,,
,,979450,001,2023-07-31_20h48.02.020,arm3_eps,2022.2.5,Win32,60.06366749,611d05c997db7c2653864ff4,64c7fed44a04f777bb1e18ce,64c801637be46e9a4f7b0db9,down,1,1,0.2429,24,0,1.0807,39,0,39,0,1,,,,,,,,,,
,,979450,001,2023-07-31_20h48.02.020,arm3_eps,2022.2.5,Win32,60.06366749,611d05c997db7c2653864ff4,64c7fed44a04f777bb1e18ce,64c801637be46e9a4f7b0db9,up,1,1,0.2429,25,0,1.1748,40,0,40,0,1,,,,,,,,,,
,,979450,001,2023-07-31_20h48.02.020,arm3_eps,2022.2.5,Win32,60.06366749,611d05c997db7c2653864ff4,64c7fed44a04f777bb1e18ce,64c801637be46e9a4f7b0db9,up,1,1,0.2429,26,0,1.1271,41,0,41,0,1,,,,,,,,,,
,,979450,001,2023-07-31_20h48.02.020,arm3_eps,2022.2.5,Win32,60.06366749,611d05c997db7c2653864ff4,64c7fed44a04f777bb1e18ce,64c801637be46e9a4f7b0db9,up,1,1,0.2429,27,0,1.6572,42,0,42,0,1,,,,,,,,,,
,,979450,001,2023-07-31_20h48.02.020,arm3_eps,2022.2.5,Win32,60.06366749,611d05c997db7c2653864ff4,64c7fed44a04f777bb1e18ce,64c801637be46e9a4f7b0db9,down,1,1,0.2429,26,0,2.9603,43,0,43,0,1,,,,,,,,,,
,,979450,001,2023-07-31_20h48.02.020,arm3_eps,2022.2.5,Win32,60.06366749,611d05c997db7c2653864ff4,64c7fed44a04f777bb1e18ce,64c801637be46e9a4f7b0db9,up,1,1,0.2429,27,0,1.0217,44,0,44,0,1,,,,,,,,,,
,,979450,001,2023-07-31_20h48.02.020,arm3_eps,2022.2.5,Win32,60.06366749,611d05c997db7c2653864ff4,64c7fed44a04f777bb1e18ce,64c801637be46e9a4f7b0db9,up,-1,1,0.2429,28,0,1.3366,45,0,45,0,1,,,,,,,,,,
,,979450,001,2023-07-31_20h48.02.020,arm3_eps,2022.2.5,Win32,60.06366749,611d05c997db7c2653864ff4,64c7fed44a04f777bb1e18ce,64c801637be46e9a4f7b0db9,down,-1,1,0.2429,29,0,1.4551,46,0,46,0,1,,,,,,,,,,
,,979450,001,2023-07-31_20h48.02.020,arm3_eps,2022.2.5,Win32,60.06366749,611d05c997db7c2653864ff4,64c7fed44a04f777bb1e18ce,64c801637be46e9a4f7b0db9,down,-1,1,0.2429,30,0,1.6108,47,0,47,0,1,,,,,,,,,,
,,979450,001,2023-07-31_20h48.02.020,arm3_eps,2022.2.5,Win32,60.06366749,611d05c997db7c2653864ff4,64c7fed44a04f777bb1e18ce,64c801637be46e9a4f7b0db9,down,1,1,0.2429,31,0,1.3541,48,0,48,0,1,,,,,,,,,,
,,979450,001,2023-07-31_20h48.02.020,arm3_eps,2022.2.5,Win32,60.06366749,611d05c997db7c2653864ff4,64c7fed44a04f777bb1e18ce,64c801637be46e9a4f7b0db9,up,1,1,0.2429,31,0,1.602,49,0,49,0,1,,,,,,,,,,
space,13.781,979450,001,2023-07-31_20h48.02.020,arm3_eps,2022.2.5,Win32,60.06366749,611d05c997db7c2653864ff4,64c7fed44a04f777bb1e18ce,64c801637be46e9a4f7b0db9,,,,,,,,,,,,,,,,,,,,,,
space,10.0189,979450,001,2023-07-31_20h48.02.020,arm3_eps,2022.2.5,Win32,60.06366749,611d05c997db7c2653864ff4,64c7fed44a04f777bb1e18ce,64c801637be46e9a4f7b0db9,,,,,,,,,,,,,,,,,,,,,,
space,12.9943,979450,001,2023-07-31_20h48.02.020,arm3_eps,2022.2.5,Win32,60.06366749,611d05c997db7c2653864ff4,64c7fed44a04f777bb1e18ce,64c801637be46e9a4f7b0db9,,,,,,,,,,,,,,,,,,,,,,
space,8.7396,979450,001,2023-07-31_20h48.02.020,arm3_eps,2022.2.5,Win32,60.06366749,611d05c997db7c2653864ff4,64c7fed44a04f777bb1e18ce,64c801637be46e9a4f7b0db9,,,,,,,,,,,,,,,,,,,,,,
space,7.2243,979450,001,2023-07-31_20h48.02.020,arm3_eps,2022.2.5,Win32,60.06366749,611d05c997db7c2653864ff4,64c7fed44a04f777bb1e18ce,64c801637be46e9a4f7b0db9,,,,,,,,,,,,,,,,,,,,,,
space,1.1214,979450,001,2023-07-31_20h48.02.020,arm3_eps,2022.2.5,Win32,60.06366749,611d05c997db7c2653864ff4,64c7fed44a04f777bb1e18ce,64c801637be46e9a4f7b0db9,,,,,,,,,,,,,,,,,,,,,,
,,979450,001,2023-07-31_20h48.02.020,arm3_eps,2022.2.5,Win32,60.06366749,611d05c997db7c2653864ff4,64c7fed44a04f777bb1e18ce,64c801637be46e9a4f7b0db9,up,1,0.75,0.2429,1,0,1.0739,0,0,0,0,1,,,,,,,,,,
,,979450,001,2023-07-31_20h48.02.020,arm3_eps,2022.2.5,Win32,60.06366749,611d05c997db7c2653864ff4,64c7fed44a04f777bb1e18ce,64c801637be46e9a4f7b0db9,up,1,0.75,0.2429,1,0,1.5,1,0,1,0,1,,,,,,,,,,
,,979450,001,2023-07-31_20h48.02.020,arm3_eps,2022.2.5,Win32,60.06366749,611d05c997db7c2653864ff4,64c7fed44a04f777bb1e18ce,64c801637be46e9a4f7b0db9,down,1,0.75,0.2429,1,0,1.4199,2,0,2,0,1,,,,,,,,,,
,,979450,001,2023-07-31_20h48.02.020,arm3_eps,2022.2.5,Win32,60.06366749,611d05c997db7c2653864ff4,64c7fed44a04f777bb1e18ce,64c801637be46e9a4f7b0db9,up,1,0.75,0.2429,2,0,1.6073,3,0,3,0,1,,,,,,,,,,
,,979450,001,2023-07-31_20h48.02.020,arm3_eps,2022.2.5,Win32,60.06366749,611d05c997db7c2653864ff4,64c7fed44a04f777bb1e18ce,64c801637be46e9a4f7b0db9,up,1,0.75,0.2429,3,0,1.3391,4,0,4,0,1,,,,,,,,,,
,,979450,001,2023-07-31_20h48.02.020,arm3_eps,2022.2.5,Win32,60.06366749,611d05c997db7c2653864ff4,64c7fed44a04f777bb1e18ce,64c801637be46e9a4f7b0db9,down,1,0.75,0.2429,2,0,1.4695,5,0,5,0,1,,,,,,,,,,
,,979450,001,2023-07-31_20h48.02.020,arm3_eps,2022.2.5,Win32,60.06366749,611d05c997db7c2653864ff4,64c7fed44a04f777bb1e18ce,64c801637be46e9a4f7b0db9,up,-1,0.75,0.2429,3,0,1.5367,6,0,6,0,1,,,,,,,,,,
,,979450,001,2023-07-31_20h48.02.020,arm3_eps,2022.2.5,Win32,60.06366749,611d05c997db7c2653864ff4,64c7fed44a04f777bb1e18ce,64c801637be46e9a4f7b0db9,down,1,0.75,0.2429,3,0,1.2096,7,0,7,0,1,,,,,,,,,,
,,979450,001,2023-07-31_20h48.02.020,arm3_eps,2022.2.5,Win32,60.06366749,611d05c997db7c2653864ff4,64c7fed44a04f777bb1e18ce,64c801637be46e9a4f7b0db9,up,-1,0.75,0.2429,3,0,1.2216,8,0,8,0,1,,,,,,,,,,
,,979450,001,2023-07-31_20h48.02.020,arm3_eps,2022.2.5,Win32,60.06366749,611d05c997db7c2653864ff4,64c7fed44a04f777bb1e18ce,64c801637be46e9a4f7b0db9,down,1,0.75,0.2429,3,0,1.2889,9,0,9,0,1,,,,,,,,,,
,,979450,001,2023-07-31_20h48.02.020,arm3_eps,2022.2.5,Win32,60.06366749,611d05c997db7c2653864ff4,64c7fed44a04f777bb1e18ce,64c801637be46e9a4f7b0db9,up,-1,0.75,0.2429,4,0,1.0486,10,0,10,0,1,,,,,,,,,,
,,979450,001,2023-07-31_20h48.02.020,arm3_eps,2022.2.5,Win32,60.06366749,611d05c997db7c2653864ff4,64c7fed44a04f777bb1e18ce,64c801637be46e9a4f7b0db9,down,1,0.75,0.2429,5,0,1.2409,11,0,11,0,1,,,,,,,,,,
,,979450,001,2023-07-31_20h48.02.020,arm3_eps,2022.2.5,Win32,60.06366749,611d05c997db7c2653864ff4,64c7fed44a04f777bb1e18ce,64c801637be46e9a4f7b0db9,down,1,0.75,0.2429,5,0,1.3291,12,0,12,0,1,,,,,,,,,,
,,979450,001,2023-07-31_20h48.02.020,arm3_eps,2022.2.5,Win32,60.06366749,611d05c997db7c2653864ff4,64c7fed44a04f777bb1e18ce,64c801637be46e9a4f7b0db9,down,1,0.75,0.2429,4,0,1.4039,13,0,13,0,1,,,,,,,,,,
,,979450,001,2023-07-31_20h48.02.020,arm3_eps,2022.2.5,Win32,60.06366749,611d05c997db7c2653864ff4,64c7fed44a04f777bb1e18ce,64c801637be46e9a4f7b0db9,up,-1,0.75,0.2429,5,0,1.2725,14,0,14,0,1,,,,,,,,,,
,,979450,001,2023-07-31_20h48.02.020,arm3_eps,2022.2.5,Win32,60.06366749,611d05c997db7c2653864ff4,64c7fed44a04f777bb1e18ce,64c801637be46e9a4f7b0db9,up,-1,0.75,0.2429,4,0,1.153,15,0,15,0,1,,,,,,,,,,
,,979450,001,2023-07-31_20h48.02.020,arm3_eps,2022.2.5,Win32,60.06366749,611d05c997db7c2653864ff4,64c7fed44a04f777bb1e18ce,64c801637be46e9a4f7b0db9,down,1,0.75,0.2429,5,0,1.2367,16,0,16,0,1,,,,,,,,,,
,,979450,001,2023-07-31_20h48.02.020,arm3_eps,2022.2.5,Win32,60.06366749,611d05c997db7c2653864ff4,64c7fed44a04f777bb1e18ce,64c801637be46e9a4f7b0db9,up,1,0.75,0.2429,6,0,1.2859,17,0,17,0,1,,,,,,,,,,
,,979450,001,2023-07-31_20h48.02.020,arm3_eps,2022.2.5,Win32,60.06366749,611d05c997db7c2653864ff4,64c7fed44a04f777bb1e18ce,64c801637be46e9a4f7b0db9,up,1,0.75,0.2429,7,0,1.0709,18,0,18,0,1,,,,,,,,,,
,,979450,001,2023-07-31_20h48.02.020,arm3_eps,2022.2.5,Win32,60.06366749,611d05c997db7c2653864ff4,64c7fed44a04f777bb1e18ce,64c801637be46e9a4f7b0db9,down,-1,0.75,0.2429,6,0,1.2048,19,0,19,0,1,,,,,,,,,,
,,979450,001,2023-07-31_20h48.02.020,arm3_eps,2022.2.5,Win32,60.06366749,611d05c997db7c2653864ff4,64c7fed44a04f777bb1e18ce,64c801637be46e9a4f7b0db9,up,-1,0.75,0.2429,5,0,0.968,20,0,20,0,1,,,,,,,,,,
,,979450,001,2023-07-31_20h48.02.020,arm3_eps,2022.2.5,Win32,60.06366749,611d05c997db7c2653864ff4,64c7fed44a04f777bb1e18ce,64c801637be46e9a4f7b0db9,up,1,0.75,0.2429,5,0,1.4126,21,0,21,0,1,,,,,,,,,,
,,979450,001,2023-07-31_20h48.02.020,arm3_eps,2022.2.5,Win32,60.06366749,611d05c997db7c2653864ff4,64c7fed44a04f777bb1e18ce,64c801637be46e9a4f7b0db9,down,1,0.75,0.2429,5,0,1.1126,22,0,22,0,1,,,,,,,,,,
,,979450,001,2023-07-31_20h48.02.020,arm3_eps,2022.2.5,Win32,60.06366749,611d05c997db7c2653864ff4,64c7fed44a04f777bb1e18ce,64c801637be46e9a4f7b0db9,up,-1,0.75,0.2429,6,0,1.0621,23,0,23,0,1,,,,,,,,,,
,,979450,001,2023-07-31_20h48.02.020,arm3_eps,2022.2.5,Win32,60.06366749,611d05c997db7c2653864ff4,64c7fed44a04f777bb1e18ce,64c801637be46e9a4f7b0db9,up,-1,0.75,0.2429,5,0,1.9234,24,0,24,0,1,,,,,,,,,,
,,979450,001,2023-07-31_20h48.02.020,arm3_eps,2022.2.5,Win32,60.06366749,611d05c997db7c2653864ff4,64c7fed44a04f777bb1e18ce,64c801637be46e9a4f7b0db9,up,-1,0.75,0.2429,4,0,1.5283,25,0,25,0,1,,,,,,,,,,
,,979450,001,2023-07-31_20h48.02.020,arm3_eps,2022.2.5,Win32,60.06366749,611d05c997db7c2653864ff4,64c7fed44a04f777bb1e18ce,64c801637be46e9a4f7b0db9,down,-1,0.75,0.2429,5,0,1.0715,26,0,26,0,1,,,,,,,,,,
,,979450,001,2023-07-31_20h48.02.020,arm3_eps,2022.2.5,Win32,60.06366749,611d05c997db7c2653864ff4,64c7fed44a04f777bb1e18ce,64c801637be46e9a4f7b0db9,up,-1,0.75,0.2429,4,0,1.5075,27,0,27,0,1,,,,,,,,,,
,,979450,001,2023-07-31_20h48.02.020,arm3_eps,2022.2.5,Win32,60.06366749,611d05c997db7c2653864ff4,64c7fed44a04f777bb1e18ce,64c801637be46e9a4f7b0db9,down,1,0.75,0.2429,5,0,1.0384,28,0,28,0,1,,,,,,,,,,
,,979450,001,2023-07-31_20h48.02.020,arm3_eps,2022.2.5,Win32,60.06366749,611d05c997db7c2653864ff4,64c7fed44a04f777bb1e18ce,64c801637be46e9a4f7b0db9,down,1,0.75,0.2429,4,0,1.1249,29,0,29,0,1,,,,,,,,,,
,,979450,001,2023-07-31_20h48.02.020,arm3_eps,2022.2.5,Win32,60.06366749,611d05c997db7c2653864ff4,64c7fed44a04f777bb1e18ce,64c801637be46e9a4f7b0db9,up,1,0.75,0.2429,5,0,1.1245,30,0,30,0,1,,,,,,,,,,
,,979450,001,2023-07-31_20h48.02.020,arm3_eps,2022.2.5,Win32,60.06366749,611d05c997db7c2653864ff4,64c7fed44a04f777bb1e18ce,64c801637be46e9a4f7b0db9,down,1,0.75,0.2429,4,0,1.2456,31,0,31,0,1,,,,,,,,,,
,,979450,001,2023-07-31_20h48.02.020,arm3_eps,2022.2.5,Win32,60.06366749,611d05c997db7c2653864ff4,64c7fed44a04f777bb1e18ce,64c801637be46e9a4f7b0db9,down,1,0.75,0.2429,4,0,1.142,32,0,32,0,1,,,,,,,,,,
,,979450,001,2023-07-31_20h48.02.020,arm3_eps,2022.2.5,Win32,60.06366749,611d05c997db7c2653864ff4,64c7fed44a04f777bb1e18ce,64c801637be46e9a4f7b0db9,up,1,0.75,0.2429,5,0,1.1061,33,0,33,0,1,,,,,,,,,,
,,979450,001,2023-07-31_20h48.02.020,arm3_eps,2022.2.5,Win32,60.06366749,611d05c997db7c2653864ff4,64c7fed44a04f777bb1e18ce,64c801637be46e9a4f7b0db9,up,1,0.75,0.2429,6,0,1.0027,34,0,34,0,1,,,,,,,,,,
,,979450,001,2023-07-31_20h48.02.020,arm3_eps,2022.2.5,Win32,60.06366749,611d05c997db7c2653864ff4,64c7fed44a04f777bb1e18ce,64c801637be46e9a4f7b0db9,up,1,0.75,0.2429,7,0,1.242,35,0,35,0,1,,,,,,,,,,
,,979450,001,2023-07-31_20h48.02.020,arm3_eps,2022.2.5,Win32,60.06366749,611d05c997db7c2653864ff4,64c7fed44a04f777bb1e18ce,64c801637be46e9a4f7b0db9,up,-1,0.75,0.2429,7,0,1.0549,36,0,36,0,1,,,,,,,,,,
,,979450,001,2023-07-31_20h48.02.020,arm3_eps,2022.2.5,Win32,60.06366749,611d05c997db7c2653864ff4,64c7fed44a04f777bb1e18ce,64c801637be46e9a4f7b0db9,down,-1,0.75,0.2429,8,0,1.1539,37,0,37,0,1,,,,,,,,,,
,,979450,001,2023-07-31_20h48.02.020,arm3_eps,2022.2.5,Win32,60.06366749,611d05c997db7c2653864ff4,64c7fed44a04f777bb1e18ce,64c801637be46e9a4f7b0db9,down,-1,0.75,0.2429,9,0,1.0742,38,0,38,0,1,,,,,,,,,,
,,979450,001,2023-07-31_20h48.02.020,arm3_eps,2022.2.5,Win32,60.06366749,611d05c997db7c2653864ff4,64c7fed44a04f777bb1e18ce,64c801637be46e9a4f7b0db9,up,-1,0.75,0.2429,8,0,1.1201,39,0,39,0,1,,,,,,,,,,
,,979450,001,2023-07-31_20h48.02.020,arm3_eps,2022.2.5,Win32,60.06366749,611d05c997db7c2653864ff4,64c7fed44a04f777bb1e18ce,64c801637be46e9a4f7b0db9,up,-1,0.75,0.2429,8,0,1.4747,40,0,40,0,1,,,,,,,,,,
,,979450,001,2023-07-31_20h48.02.020,arm3_eps,2022.2.5,Win32,60.06366749,611d05c997db7c2653864ff4,64c7fed44a04f777bb1e18ce,64c801637be46e9a4f7b0db9,down,-1,0.75,0.2429,8,0,1.3481,41,0,41,0,1,,,,,,,,,,
,,979450,001,2023-07-31_20h48.02.020,arm3_eps,2022.2.5,Win32,60.06366749,611d05c997db7c2653864ff4,64c7fed44a04f777bb1e18ce,64c801637be46e9a4f7b0db9,down,-1,0.75,0.2429,9,0,1.2225,42,0,42,0,1,,,,,,,,,,
,,979450,001,2023-07-31_20h48.02.020,arm3_eps,2022.2.5,Win32,60.06366749,611d05c997db7c2653864ff4,64c7fed44a04f777bb1e18ce,64c801637be46e9a4f7b0db9,up,-1,0.75,0.2429,9,0,1.0905,43,0,43,0,1,,,,,,,,,,
,,979450,001,2023-07-31_20h48.02.020,arm3_eps,2022.2.5,Win32,60.06366749,611d05c997db7c2653864ff4,64c7fed44a04f777bb1e18ce,64c801637be46e9a4f7b0db9,up,-1,0.75,0.2429,9,0,1.1981,44,0,44,0,1,,,,,,,,,,
,,979450,001,2023-07-31_20h48.02.020,arm3_eps,2022.2.5,Win32,60.06366749,611d05c997db7c2653864ff4,64c7fed44a04f777bb1e18ce,64c801637be46e9a4f7b0db9,down,-1,0.75,0.2429,9,0,1.1952,45,0,45,0,1,,,,,,,,,,
,,979450,001,2023-07-31_20h48.02.020,arm3_eps,2022.2.5,Win32,60.06366749,611d05c997db7c2653864ff4,64c7fed44a04f777bb1e18ce,64c801637be46e9a4f7b0db9,up,-1,0.75,0.2429,9,0,1.1894,46,0,46,0,1,,,,,,,,,,
,,979450,001,2023-07-31_20h48.02.020,arm3_eps,2022.2.5,Win32,60.06366749,611d05c997db7c2653864ff4,64c7fed44a04f777bb1e18ce,64c801637be46e9a4f7b0db9,down,-1,0.75,0.2429,10,0,1.1859,47,0,47,0,1,,,,,,,,,,
,,979450,001,2023-07-31_20h48.02.020,arm3_eps,2022.2.5,Win32,60.06366749,611d05c997db7c2653864ff4,64c7fed44a04f777bb1e18ce,64c801637be46e9a4f7b0db9,down,-1,0.75,0.2429,11,0,1.9687,48,0,48,0,1,,,,,,,,,,
,,979450,001,2023-07-31_20h48.02.020,arm3_eps,2022.2.5,Win32,60.06366749,611d05c997db7c2653864ff4,64c7fed44a04f777bb1e18ce,64c801637be46e9a4f7b0db9,down,-1,0.75,0.2429,11,0,1.1344,49,0,49,0,1,,,,,,,,,,
space,11.2008,979450,001,2023-07-31_20h48.02.020,arm3_eps,2022.2.5,Win32,60.06366749,611d05c997db7c2653864ff4,64c7fed44a04f777bb1e18ce,64c801637be46e9a4f7b0db9,,,,,,,,,,,,,,,,,,,,,,
space,8.1922,979450,001,2023-07-31_20h48.02.020,arm3_eps,2022.2.5,Win32,60.06366749,611d05c997db7c2653864ff4,64c7fed44a04f777bb1e18ce,64c801637be46e9a4f7b0db9,,,,,,,,,,,,,,,,,,,,,,
space,0.9644,979450,001,2023-07-31_20h48.02.020,arm3_eps,2022.2.5,Win32,60.06366749,611d05c997db7c2653864ff4,64c7fed44a04f777bb1e18ce,64c801637be46e9a4f7b0db9,,,,,,,,,,,,,,,,,,,,,,
,,979450,001,2023-07-31_20h48.02.020,arm3_eps,2022.2.5,Win32,60.06366749,611d05c997db7c2653864ff4,64c7fed44a04f777bb1e18ce,64c801637be46e9a4f7b0db9,down,-1,0.75,0.05,0,0,2.3879,0,0,0,0,1,,,,,,,,,,
,,979450,001,2023-07-31_20h48.02.020,arm3_eps,2022.2.5,Win32,60.06366749,611d05c997db7c2653864ff4,64c7fed44a04f777bb1e18ce,64c801637be46e9a4f7b0db9,down,-1,0.75,0.05,0,0,1.2379,1,0,1,0,1,,,,,,,,,,
,,979450,001,2023-07-31_20h48.02.020,arm3_eps,2022.2.5,Win32,60.06366749,611d05c997db7c2653864ff4,64c7fed44a04f777bb1e18ce,64c801637be46e9a4f7b0db9,down,-1,0.75,0.05,1,0,1.578,2,0,2,0,1,,,,,,,,,,
,,979450,001,2023-07-31_20h48.02.020,arm3_eps,2022.2.5,Win32,60.06366749,611d05c997db7c2653864ff4,64c7fed44a04f777bb1e18ce,64c801637be46e9a4f7b0db9,down,-1,0.75,0.05,2,0,1.109,3,0,3,0,1,,,,,,,,,,
,,979450,001,2023-07-31_20h48.02.020,arm3_eps,2022.2.5,Win32,60.06366749,611d05c997db7c2653864ff4,64c7fed44a04f777bb1e18ce,64c801637be46e9a4f7b0db9,down,-1,0.75,0.05,2,0,1.2608,4,0,4,0,1,,,,,,,,,,
,,979450,001,2023-07-31_20h48.02.020,arm3_eps,2022.2.5,Win32,60.06366749,611d05c997db7c2653864ff4,64c7fed44a04f777bb1e18ce,64c801637be46e9a4f7b0db9,down,-1,0.75,0.05,3,0,1.0717,5,0,5,0,1,,,,,,,,,,
,,979450,001,2023-07-31_20h48.02.020,arm3_eps,2022.2.5,Win32,60.06366749,611d05c997db7c2653864ff4,64c7fed44a04f777bb1e18ce,64c801637be46e9a4f7b0db9,up,-1,0.75,0.05,2,0,1.1721,6,0,6,0,1,,,,,,,,,,
,,979450,001,2023-07-31_20h48.02.020,arm3_eps,2022.2.5,Win32,60.06366749,611d05c997db7c2653864ff4,64c7fed44a04f777bb1e18ce,64c801637be46e9a4f7b0db9,down,-1,0.75,0.05,3,0,1.0875,7,0,7,0,1,,,,,,,,,,
,,979450,001,2023-07-31_20h48.02.020,arm3_eps,2022.2.5,Win32,60.06366749,611d05c997db7c2653864ff4,64c7fed44a04f777bb1e18ce,64c801637be46e9a4f7b0db9,down,-1,0.75,0.05,4,0,1.1544,8,0,8,0,1,,,,,,,,,,
,,979450,001,2023-07-31_20h48.02.020,arm3_eps,2022.2.5,Win32,60.06366749,611d05c997db7c2653864ff4,64c7fed44a04f777bb1e18ce,64c801637be46e9a4f7b0db9,down,-1,0.75,0.05,5,0,0.9788,9,0,9,0,1,,,,,,,,,,
,,979450,001,2023-07-31_20h48.02.020,arm3_eps,2022.2.5,Win32,60.06366749,611d05c997db7c2653864ff4,64c7fed44a04f777bb1e18ce,64c801637be46e9a4f7b0db9,down,-1,0.75,0.05,6,0,1.1208,10,0,10,0,1,,,,,,,,,,
,,979450,001,2023-07-31_20h48.02.020,arm3_eps,2022.2.5,Win32,60.06366749,611d05c997db7c2653864ff4,64c7fed44a04f777bb1e18ce,64c801637be46e9a4f7b0db9,down,1,0.75,0.05,7,0,1.2332,11,0,11,0,1,,,,,,,,,,
,,979450,001,2023-07-31_20h48.02.020,arm3_eps,2022.2.5,Win32,60.06366749,611d05c997db7c2653864ff4,64c7fed44a04f777bb1e18ce,64c801637be46e9a4f7b0db9,up,1,0.75,0.05,8,0,1.2219,12,0,12,0,1,,,,,,,,,,
,,979450,001,2023-07-31_20h48.02.020,arm3_eps,2022.2.5,Win32,60.06366749,611d05c997db7c2653864ff4,64c7fed44a04f777bb1e18ce,64c801637be46e9a4f7b0db9,up,1,0.75,0.05,8,0,1.172,13,0,13,0,1,,,,,,,,,,
,,979450,001,2023-07-31_20h48.02.020,arm3_eps,2022.2.5,Win32,60.06366749,611d05c997db7c2653864ff4,64c7fed44a04f777bb1e18ce,64c801637be46e9a4f7b0db9,down,1,0.75,0.05,7,0,1.1523,14,0,14,0,1,,,,,,,,,,
,,979450,001,2023-07-31_20h48.02.020,arm3_eps,2022.2.5,Win32,60.06366749,611d05c997db7c2653864ff4,64c7fed44a04f777bb1e18ce,64c801637be46e9a4f7b0db9,up,1,0.75,0.05,8,0,1.0603,15,0,15,0,1,,,,,,,,,,
,,979450,001,2023-07-31_20h48.02.020,arm3_eps,2022.2.5,Win32,60.06366749,611d05c997db7c2653864ff4,64c7fed44a04f777bb1e18ce,64c801637be46e9a4f7b0db9,up,1,0.75,0.05,9,0,2.0774,16,0,16,0,1,,,,,,,,,,
,,979450,001,2023-07-31_20h48.02.020,arm3_eps,2022.2.5,Win32,60.06366749,611d05c997db7c2653864ff4,64c7fed44a04f777bb1e18ce,64c801637be46e9a4f7b0db9,up,1,0.75,0.05,10,0,1.9037,17,0,17,0,1,,,,,,,,,,
,,979450,001,2023-07-31_20h48.02.020,arm3_eps,2022.2.5,Win32,60.06366749,611d05c997db7c2653864ff4,64c7fed44a04f777bb1e18ce,64c801637be46e9a4f7b0db9,up,1,0.75,0.05,11,0,1.6111,18,0,18,0,1,,,,,,,,,,
,,979450,001,2023-07-31_20h48.02.020,arm3_eps,2022.2.5,Win32,60.06366749,611d05c997db7c2653864ff4,64c7fed44a04f777bb1e18ce,64c801637be46e9a4f7b0db9,down,1,0.75,0.05,10,0,1.2548,19,0,19,0,1,,,,,,,,,,
,,979450,001,2023-07-31_20h48.02.020,arm3_eps,2022.2.5,Win32,60.06366749,611d05c997db7c2653864ff4,64c7fed44a04f777bb1e18ce,64c801637be46e9a4f7b0db9,up,1,0.75,0.05,10,0,0.8928,20,0,20,0,1,,,,,,,,,,
,,979450,001,2023-07-31_20h48.02.020,arm3_eps,2022.2.5,Win32,60.06366749,611d05c997db7c2653864ff4,64c7fed44a04f777bb1e18ce,64c801637be46e9a4f7b0db9,up,1,0.75,0.05,10,0,1.0104,21,0,21,0,1,,,,,,,,,,
,,979450,001,2023-07-31_20h48.02.020,arm3_eps,2022.2.5,Win32,60.06366749,611d05c997db7c2653864ff4,64c7fed44a04f777bb1e18ce,64c801637be46e9a4f7b0db9,up,1,0.75,0.05,11,0,0.9675,22,0,22,0,1,,,,,,,,,,
,,979450,001,2023-07-31_20h48.02.020,arm3_eps,2022.2.5,Win32,60.06366749,611d05c997db7c2653864ff4,64c7fed44a04f777bb1e18ce,64c801637be46e9a4f7b0db9,down,1,0.75,0.05,10,0,1.2976,23,0,23,0,1,,,,,,,,,,
,,979450,001,2023-07-31_20h48.02.020,arm3_eps,2022.2.5,Win32,60.06366749,611d05c997db7c2653864ff4,64c7fed44a04f777bb1e18ce,64c801637be46e9a4f7b0db9,up,1,0.75,0.05,11,0,0.9113,24,0,24,0,1,,,,,,,,,,
,,979450,001,2023-07-31_20h48.02.020,arm3_eps,2022.2.5,Win32,60.06366749,611d05c997db7c2653864ff4,64c7fed44a04f777bb1e18ce,64c801637be46e9a4f7b0db9,up,1,0.75,0.05,12,0,1.139,25,0,25,0,1,,,,,,,,,,
,,979450,001,2023-07-31_20h48.02.020,arm3_eps,2022.2.5,Win32,60.06366749,611d05c997db7c2653864ff4,64c7fed44a04f777bb1e18ce,64c801637be46e9a4f7b0db9,up,1,0.75,0.05,13,0,1.0006,26,0,26,0,1,,,,,,,,,,
,,979450,001,2023-07-31_20h48.02.020,arm3_eps,2022.2.5,Win32,60.06366749,611d05c997db7c2653864ff4,64c7fed44a04f777bb1e18ce,64c801637be46e9a4f7b0db9,up,1,0.75,0.05,14,0,1.0619,27,0,27,0,1,,,,,,,,,,
,,979450,001,2023-07-31_20h48.02.020,arm3_eps,2022.2.5,Win32,60.06366749,611d05c997db7c2653864ff4,64c7fed44a04f777bb1e18ce,64c801637be46e9a4f7b0db9,down,1,0.75,0.05,14,0,1.5887,28,0,28,0,1,,,,,,,,,,
,,979450,001,2023-07-31_20h48.02.020,arm3_eps,2022.2.5,Win32,60.06366749,611d05c997db7c2653864ff4,64c7fed44a04f777bb1e18ce,64c801637be46e9a4f7b0db9,up,1,0.75,0.05,15,0,1.0253,29,0,29,0,1,,,,,,,,,,
,,979450,001,2023-07-31_20h48.02.020,arm3_eps,2022.2.5,Win32,60.06366749,611d05c997db7c2653864ff4,64c7fed44a04f777bb1e18ce,64c801637be46e9a4f7b0db9,up,1,0.75,0.05,16,0,1.2764,30,0,30,0,1,,,,,,,,,,
,,979450,001,2023-07-31_20h48.02.020,arm3_eps,2022.2.5,Win32,60.06366749,611d05c997db7c2653864ff4,64c7fed44a04f777bb1e18ce,64c801637be46e9a4f7b0db9,up,1,0.75,0.05,16,0,1.1145,31,0,31,0,1,,,,,,,,,,
,,979450,001,2023-07-31_20h48.02.020,arm3_eps,2022.2.5,Win32,60.06366749,611d05c997db7c2653864ff4,64c7fed44a04f777bb1e18ce,64c801637be46e9a4f7b0db9,up,1,0.75,0.05,17,0,1.2218,32,0,32,0,1,,,,,,,,,,
,,979450,001,2023-07-31_20h48.02.020,arm3_eps,2022.2.5,Win32,60.06366749,611d05c997db7c2653864ff4,64c7fed44a04f777bb1e18ce,64c801637be46e9a4f7b0db9,up,1,0.75,0.05,17,0,0.9714,33,0,33,0,1,,,,,,,,,,
,,979450,001,2023-07-31_20h48.02.020,arm3_eps,2022.2.5,Win32,60.06366749,611d05c997db7c2653864ff4,64c7fed44a04f777bb1e18ce,64c801637be46e9a4f7b0db9,up,-1,0.75,0.05,18,0,0.9291,34,0,34,0,1,,,,,,,,,,
,,979450,001,2023-07-31_20h48.02.020,arm3_eps,2022.2.5,Win32,60.06366749,611d05c997db7c2653864ff4,64c7fed44a04f777bb1e18ce,64c801637be46e9a4f7b0db9,down,-1,0.75,0.05,18,0,1.2385,35,0,35,0,1,,,,,,,,,,
,,979450,001,2023-07-31_20h48.02.020,arm3_eps,2022.2.5,Win32,60.06366749,611d05c997db7c2653864ff4,64c7fed44a04f777bb1e18ce,64c801637be46e9a4f7b0db9,up,-1,0.75,0.05,18,0,1.0896,36,0,36,0,1,,,,,,,,,,
,,979450,001,2023-07-31_20h48.02.020,arm3_eps,2022.2.5,Win32,60.06366749,611d05c997db7c2653864ff4,64c7fed44a04f777bb1e18ce,64c801637be46e9a4f7b0db9,up,-1,0.75,0.05,17,0,0.9926,37,0,37,0,1,,,,,,,,,,
,,979450,001,2023-07-31_20h48.02.020,arm3_eps,2022.2.5,Win32,60.06366749,611d05c997db7c2653864ff4,64c7fed44a04f777bb1e18ce,64c801637be46e9a4f7b0db9,down,-1,0.75,0.05,18,0,1.0051,38,0,38,0,1,,,,,,,,,,
,,979450,001,2023-07-31_20h48.02.020,arm3_eps,2022.2.5,Win32,60.06366749,611d05c997db7c2653864ff4,64c7fed44a04f777bb1e18ce,64c801637be46e9a4f7b0db9,down,-1,0.75,0.05,19,0,1.6896,39,0,39,0,1,,,,,,,,,,
,,979450,001,2023-07-31_20h48.02.020,arm3_eps,2022.2.5,Win32,60.06366749,611d05c997db7c2653864ff4,64c7fed44a04f777bb1e18ce,64c801637be46e9a4f7b0db9,down,-1,0.75,0.05,20,0,1.2899,40,0,40,0,1,,,,,,,,,,
,,979450,001,2023-07-31_20h48.02.020,arm3_eps,2022.2.5,Win32,60.06366749,611d05c997db7c2653864ff4,64c7fed44a04f777bb1e18ce,64c801637be46e9a4f7b0db9,down,-1,0.75,0.05,20,0,0.9739,41,0,41,0,1,,,,,,,,,,
,,979450,001,2023-07-31_20h48.02.020,arm3_eps,2022.2.5,Win32,60.06366749,611d05c997db7c2653864ff4,64c7fed44a04f777bb1e18ce,64c801637be46e9a4f7b0db9,down,-1,0.75,0.05,20,0,1.0742,42,0,42,0,1,,,,,,,,,,
,,979450,001,2023-07-31_20h48.02.020,arm3_eps,2022.2.5,Win32,60.06366749,611d05c997db7c2653864ff4,64c7fed44a04f777bb1e18ce,64c801637be46e9a4f7b0db9,up,-1,0.75,0.05,20,0,1.1081,43,0,43,0,1,,,,,,,,,,
,,979450,001,2023-07-31_20h48.02.020,arm3_eps,2022.2.5,Win32,60.06366749,611d05c997db7c2653864ff4,64c7fed44a04f777bb1e18ce,64c801637be46e9a4f7b0db9,up,-1,0.75,0.05,20,0,1.0716,44,0,44,0,1,,,,,,,,,,
,,979450,001,2023-07-31_20h48.02.020,arm3_eps,2022.2.5,Win32,60.06366749,611d05c997db7c2653864ff4,64c7fed44a04f777bb1e18ce,64c801637be46e9a4f7b0db9,up,-1,0.75,0.05,19,0,1.1891,45,0,45,0,1,,,,,,,,,,
,,979450,001,2023-07-31_20h48.02.020,arm3_eps,2022.2.5,Win32,60.06366749,611d05c997db7c2653864ff4,64c7fed44a04f777bb1e18ce,64c801637be46e9a4f7b0db9,down,-1,0.75,0.05,20,0,0.8923,46,0,46,0,1,,,,,,,,,,
,,979450,001,2023-07-31_20h48.02.020,arm3_eps,2022.2.5,Win32,60.06366749,611d05c997db7c2653864ff4,64c7fed44a04f777bb1e18ce,64c801637be46e9a4f7b0db9,down,-1,0.75,0.05,21,0,1.3055,47,0,47,0,1,,,,,,,,,,
,,979450,001,2023-07-31_20h48.02.020,arm3_eps,2022.2.5,Win32,60.06366749,611d05c997db7c2653864ff4,64c7fed44a04f777bb1e18ce,64c801637be46e9a4f7b0db9,down,-1,0.75,0.05,21,0,0.9788,48,0,48,0,1,,,,,,,,,,
,,979450,001,2023-07-31_20h48.02.020,arm3_eps,2022.2.5,Win32,60.06366749,611d05c997db7c2653864ff4,64c7fed44a04f777bb1e18ce,64c801637be46e9a4f7b0db9,down,-1,0.75,0.05,21,0,1.0742,49,0,49,0,1,,,,,,,,,,
space,7.7026,979450,001,2023-07-31_20h48.02.020,arm3_eps,2022.2.5,Win32,60.06366749,611d05c997db7c2653864ff4,64c7fed44a04f777bb1e18ce,64c801637be46e9a4f7b0db9,,,,,,,,,,,,,,,,,,,,,,
space,1.1635,979450,001,2023-07-31_20h48.02.020,arm3_eps,2022.2.5,Win32,60.06366749,611d05c997db7c2653864ff4,64c7fed44a04f777bb1e18ce,64c801637be46e9a4f7b0db9,,,,,,,,,,,,,,,,,,,,,,
,,979450,001,2023-07-31_20h48.02.020,arm3_eps,2022.2.5,Win32,60.06366749,611d05c997db7c2653864ff4,64c7fed44a04f777bb1e18ce,64c801637be46e9a4f7b0db9,down,1,0.75,0.5,1,0,1.6478,0,0,0,0,1,,,,,,,,,,
,,979450,001,2023-07-31_20h48.02.020,arm3_eps,2022.2.5,Win32,60.06366749,611d05c997db7c2653864ff4,64c7fed44a04f777bb1e18ce,64c801637be46e9a4f7b0db9,up,-1,0.75,0.5,1,0,1.2047,1,0,1,0,1,,,,,,,,,,
,,979450,001,2023-07-31_20h48.02.020,arm3_eps,2022.2.5,Win32,60.06366749,611d05c997db7c2653864ff4,64c7fed44a04f777bb1e18ce,64c801637be46e9a4f7b0db9,down,1,0.75,0.5,2,0,1.0894,2,0,2,0,1,,,,,,,,,,
,,979450,001,2023-07-31_20h48.02.020,arm3_eps,2022.2.5,Win32,60.06366749,611d05c997db7c2653864ff4,64c7fed44a04f777bb1e18ce,64c801637be46e9a4f7b0db9,down,-1,0.75,0.5,1,0,1.0711,3,0,3,0,1,,,,,,,,,,
,,979450,001,2023-07-31_20h48.02.020,arm3_eps,2022.2.5,Win32,60.06366749,611d05c997db7c2653864ff4,64c7fed44a04f777bb1e18ce,64c801637be46e9a4f7b0db9,up,-1,0.75,0.5,0,0,1.1234,4,0,4,0,1,,,,,,,,,,
,,979450,001,2023-07-31_20h48.02.020,arm3_eps,2022.2.5,Win32,60.06366749,611d05c997db7c2653864ff4,64c7fed44a04f777bb1e18ce,64c801637be46e9a4f7b0db9,down,1,0.75,0.5,1,0,1.1845,5,0,5,0,1,,,,,,,,,,
,,979450,001,2023-07-31_20h48.02.020,arm3_eps,2022.2.5,Win32,60.06366749,611d05c997db7c2653864ff4,64c7fed44a04f777bb1e18ce,64c801637be46e9a4f7b0db9,down,1,0.75,0.5,0,0,1.1549,6,0,6,0,1,,,,,,,,,,
,,979450,001,2023-07-31_20h48.02.020,arm3_eps,2022.2.5,Win32,60.06366749,611d05c997db7c2653864ff4,64c7fed44a04f777bb1e18ce,64c801637be46e9a4f7b0db9,up,1,0.75,0.5,0,0,0.9223,7,0,7,0,1,,,,,,,,,,
,,979450,001,2023-07-31_20h48.02.020,arm3_eps,2022.2.5,Win32,60.06366749,611d05c997db7c2653864ff4,64c7fed44a04f777bb1e18ce,64c801637be46e9a4f7b0db9,up,-1,0.75,0.5,1,0,0.962,8,0,8,0,1,,,,,,,,,,
,,979450,001,2023-07-31_20h48.02.020,arm3_eps,2022.2.5,Win32,60.06366749,611d05c997db7c2653864ff4,64c7fed44a04f777bb1e18ce,64c801637be46e9a4f7b0db9,down,-1,0.75,0.5,2,0,1.124,9,0,9,0,1,,,,,,,,,,
,,979450,001,2023-07-31_20h48.02.020,arm3_eps,2022.2.5,Win32,60.06366749,611d05c997db7c2653864ff4,64c7fed44a04f777bb1e18ce,64c801637be46e9a4f7b0db9,up,-1,0.75,0.5,1,0,1.1543,10,0,10,0,1,,,,,,,,,,
,,979450,001,2023-07-31_20h48.02.020,arm3_eps,2022.2.5,Win32,60.06366749,611d05c997db7c2653864ff4,64c7fed44a04f777bb1e18ce,64c801637be46e9a4f7b0db9,up,-1,0.75,0.5,0,0,1.0263,11,0,11,0,1,,,,,,,,,,
,,979450,001,2023-07-31_20h48.02.020,arm3_eps,2022.2.5,Win32,60.06366749,611d05c997db7c2653864ff4,64c7fed44a04f777bb1e18ce,64c801637be46e9a4f7b0db9,down,-1,0.75,0.5,1,0,0.9427,12,0,12,0,1,,,,,,,,,,
,,979450,001,2023-07-31_20h48.02.020,arm3_eps,2022.2.5,Win32,60.06366749,611d05c997db7c2653864ff4,64c7fed44a04f777bb1e18ce,64c801637be46e9a4f7b0db9,down,1,0.75,0.5,1,0,1.0272,13,0,13,0,1,,,,,,,,,,
,,979450,001,2023-07-31_20h48.02.020,arm3_eps,2022.2.5,Win32,60.06366749,611d05c997db7c2653864ff4,64c7fed44a04f777bb1e18ce,64c801637be46e9a4f7b0db9,up,-1,0.75,0.5,2,0,1.0753,14,0,14,0,1,,,,,,,,,,
,,979450,001,2023-07-31_20h48.02.020,arm3_eps,2022.2.5,Win32,60.06366749,611d05c997db7c2653864ff4,64c7fed44a04f777bb1e18ce,64c801637be46e9a4f7b0db9,up,-1,0.75,0.5,1,0,1.3065,15,0,15,0,1,,,,,,,,,,
,,979450,001,2023-07-31_20h48.02.020,arm3_eps,2022.2.5,Win32,60.06366749,611d05c997db7c2653864ff4,64c7fed44a04f777bb1e18ce,64c801637be46e9a4f7b0db9,down,1,0.75,0.5,2,0,0.8897,16,0,16,0,1,,,,,,,,,,
,,979450,001,2023-07-31_20h48.02.020,arm3_eps,2022.2.5,Win32,60.06366749,611d05c997db7c2653864ff4,64c7fed44a04f777bb1e18ce,64c801637be46e9a4f7b0db9,down,-1,0.75,0.5,1,0,1.2712,17,0,17,0,1,,,,,,,,,,
,,979450,001,2023-07-31_20h48.02.020,arm3_eps,2022.2.5,Win32,60.06366749,611d05c997db7c2653864ff4,64c7fed44a04f777bb1e18ce,64c801637be46e9a4f7b0db9,up,-1,0.75,0.5,0,0,0.9888,18,0,18,0,1,,,,,,,,,,
,,979450,001,2023-07-31_20h48.02.020,arm3_eps,2022.2.5,Win32,60.06366749,611d05c997db7c2653864ff4,64c7fed44a04f777bb1e18ce,64c801637be46e9a4f7b0db9,down,1,0.75,0.5,0,0,1.0084,19,0,19,0,1,,,,,,,,,,
,,979450,001,2023-07-31_20h48.02.020,arm3_eps,2022.2.5,Win32,60.06366749,611d05c997db7c2653864ff4,64c7fed44a04f777bb1e18ce,64c801637be46e9a4f7b0db9,up,1,0.75,0.5,1,0,0.9424,20,0,20,0,1,,,,,,,,,,
,,979450,001,2023-07-31_20h48.02.020,arm3_eps,2022.2.5,Win32,60.06366749,611d05c997db7c2653864ff4,64c7fed44a04f777bb1e18ce,64c801637be46e9a4f7b0db9,up,-1,0.75,0.5,1,0,1.4719,21,0,21,0,1,,,,,,,,,,
,,979450,001,2023-07-31_20h48.02.020,arm3_eps,2022.2.5,Win32,60.06366749,611d05c997db7c2653864ff4,64c7fed44a04f777bb1e18ce,64c801637be46e9a4f7b0db9,down,-1,0.75,0.5,2,0,0.9948,22,0,22,0,1,,,,,,,,,,
,,979450,001,2023-07-31_20h48.02.020,arm3_eps,2022.2.5,Win32,60.06366749,611d05c997db7c2653864ff4,64c7fed44a04f777bb1e18ce,64c801637be46e9a4f7b0db9,up,1,0.75,0.5,2,0,1.0246,23,0,23,0,1,,,,,,,,,,
,,979450,001,2023-07-31_20h48.02.020,arm3_eps,2022.2.5,Win32,60.06366749,611d05c997db7c2653864ff4,64c7fed44a04f777bb1e18ce,64c801637be46e9a4f7b0db9,up,1,0.75,0.5,3,0,1.1531,24,0,24,0,1,,,,,,,,,,
,,979450,001,2023-07-31_20h48.02.020,arm3_eps,2022.2.5,Win32,60.06366749,611d05c997db7c2653864ff4,64c7fed44a04f777bb1e18ce,64c801637be46e9a4f7b0db9,down,-1,0.75,0.5,2,0,1.0217,25,0,25,0,1,,,,,,,,,,
,,979450,001,2023-07-31_20h48.02.020,arm3_eps,2022.2.5,Win32,60.06366749,611d05c997db7c2653864ff4,64c7fed44a04f777bb1e18ce,64c801637be46e9a4f7b0db9,up,1,0.75,0.5,2,0,0.9568,26,0,26,0,1,,,,,,,,,,
,,979450,001,2023-07-31_20h48.02.020,arm3_eps,2022.2.5,Win32,60.06366749,611d05c997db7c2653864ff4,64c7fed44a04f777bb1e18ce,64c801637be46e9a4f7b0db9,up,-1,0.75,0.5,3,0,1.5124,27,0,27,0,1,,,,,,,,,,
,,979450,001,2023-07-31_20h48.02.020,arm3_eps,2022.2.5,Win32,60.06366749,611d05c997db7c2653864ff4,64c7fed44a04f777bb1e18ce,64c801637be46e9a4f7b0db9,down,1,0.75,0.5,4,0,1.1075,28,0,28,0,1,,,,,,,,,,
,,979450,001,2023-07-31_20h48.02.020,arm3_eps,2022.2.5,Win32,60.06366749,611d05c997db7c2653864ff4,64c7fed44a04f777bb1e18ce,64c801637be46e9a4f7b0db9,up,-1,0.75,0.5,5,0,1.2202,29,0,29,0,1,,,,,,,,,,
,,979450,001,2023-07-31_20h48.02.020,arm3_eps,2022.2.5,Win32,60.06366749,611d05c997db7c2653864ff4,64c7fed44a04f777bb1e18ce,64c801637be46e9a4f7b0db9,up,-1,0.75,0.5,4,0,1.1542,30,0,30,0,1,,,,,,,,,,
,,979450,001,2023-07-31_20h48.02.020,arm3_eps,2022.2.5,Win32,60.06366749,611d05c997db7c2653864ff4,64c7fed44a04f777bb1e18ce,64c801637be46e9a4f7b0db9,down,1,0.75,0.5,5,0,1.1561,31,0,31,0,1,,,,,,,,,,
,,979450,001,2023-07-31_20h48.02.020,arm3_eps,2022.2.5,Win32,60.06366749,611d05c997db7c2653864ff4,64c7fed44a04f777bb1e18ce,64c801637be46e9a4f7b0db9,up,-1,0.75,0.5,6,0,1.5893,32,0,32,0,1,,,,,,,,,,
,,979450,001,2023-07-31_20h48.02.020,arm3_eps,2022.2.5,Win32,60.06366749,611d05c997db7c2653864ff4,64c7fed44a04f777bb1e18ce,64c801637be46e9a4f7b0db9,down,-1,0.75,0.5,6,0,1.1942,33,0,33,0,1,,,,,,,,,,
,,979450,001,2023-07-31_20h48.02.020,arm3_eps,2022.2.5,Win32,60.06366749,611d05c997db7c2653864ff4,64c7fed44a04f777bb1e18ce,64c801637be46e9a4f7b0db9,up,-1,0.75,0.5,5,0,1.0572,34,0,34,0,1,,,,,,,,,,
,,979450,001,2023-07-31_20h48.02.020,arm3_eps,2022.2.5,Win32,60.06366749,611d05c997db7c2653864ff4,64c7fed44a04f777bb1e18ce,64c801637be46e9a4f7b0db9,down,1,0.75,0.5,6,0,1.5078,35,0,35,0,1,,,,,,,,,,
,,979450,001,2023-07-31_20h48.02.020,arm3_eps,2022.2.5,Win32,60.06366749,611d05c997db7c2653864ff4,64c7fed44a04f777bb1e18ce,64c801637be46e9a4f7b0db9,up,-1,0.75,0.5,7,0,1.1533,36,0,36,0,1,,,,,,,,,,
,,979450,001,2023-07-31_20h48.02.020,arm3_eps,2022.2.5,Win32,60.06366749,611d05c997db7c2653864ff4,64c7fed44a04f777bb1e18ce,64c801637be46e9a4f7b0db9,down,1,0.75,0.5,8,0,1.1096,37,0,37,0,1,,,,,,,,,,
,,979450,001,2023-07-31_20h48.02.020,arm3_eps,2022.2.5,Win32,60.06366749,611d05c997db7c2653864ff4,64c7fed44a04f777bb1e18ce,64c801637be46e9a4f7b0db9,up,-1,0.75,0.5,9,0,1.3065,38,0,38,0,1,,,,,,,,,,
,,979450,001,2023-07-31_20h48.02.020,arm3_eps,2022.2.5,Win32,60.06366749,611d05c997db7c2653864ff4,64c7fed44a04f777bb1e18ce,64c801637be46e9a4f7b0db9,down,-1,0.75,0.5,10,0,1.1017,39,0,39,0,1,,,,,,,,,,
,,979450,001,2023-07-31_20h48.02.020,arm3_eps,2022.2.5,Win32,60.06366749,611d05c997db7c2653864ff4,64c7fed44a04f777bb1e18ce,64c801637be46e9a4f7b0db9,up,-1,0.75,0.5,9,0,1.0938,40,0,40,0,1,,,,,,,,,,
,,979450,001,2023-07-31_20h48.02.020,arm3_eps,2022.2.5,Win32,60.06366749,611d05c997db7c2653864ff4,64c7fed44a04f777bb1e18ce,64c801637be46e9a4f7b0db9,down,-1,0.75,0.5,9,0,0.9413,41,0,41,0,1,,,,,,,,,,
,,979450,001,2023-07-31_20h48.02.020,arm3_eps,2022.2.5,Win32,60.06366749,611d05c997db7c2653864ff4,64c7fed44a04f777bb1e18ce,64c801637be46e9a4f7b0db9,down,-1,0.75,0.5,10,0,0.9289,42,0,42,0,1,,,,,,,,,,
,,979450,001,2023-07-31_20h48.02.020,arm3_eps,2022.2.5,Win32,60.06366749,611d05c997db7c2653864ff4,64c7fed44a04f777bb1e18ce,64c801637be46e9a4f7b0db9,down,-1,0.75,0.5,11,0,0.9741,43,0,43,0,1,,,,,,,,,,
,,979450,001,2023-07-31_20h48.02.020,arm3_eps,2022.2.5,Win32,60.06366749,611d05c997db7c2653864ff4,64c7fed44a04f777bb1e18ce,64c801637be46e9a4f7b0db9,up,1,0.75,0.5,10,0,1.1728,44,0,44,0,1,,,,,,,,,,
,,979450,001,2023-07-31_20h48.02.020,arm3_eps,2022.2.5,Win32,60.06366749,611d05c997db7c2653864ff4,64c7fed44a04f777bb1e18ce,64c801637be46e9a4f7b0db9,down,1,0.75,0.5,10,0,0.9809,45,0,45,0,1,,,,,,,,,,
,,979450,001,2023-07-31_20h48.02.020,arm3_eps,2022.2.5,Win32,60.06366749,611d05c997db7c2653864ff4,64c7fed44a04f777bb1e18ce,64c801637be46e9a4f7b0db9,up,1,0.75,0.5,11,0,1.2377,46,0,46,0,1,,,,,,,,,,
,,979450,001,2023-07-31_20h48.02.020,arm3_eps,2022.2.5,Win32,60.06366749,611d05c997db7c2653864ff4,64c7fed44a04f777bb1e18ce,64c801637be46e9a4f7b0db9,up,1,0.75,0.5,11,0,0.9756,47,0,47,0,1,,,,,,,,,,
,,979450,001,2023-07-31_20h48.02.020,arm3_eps,2022.2.5,Win32,60.06366749,611d05c997db7c2653864ff4,64c7fed44a04f777bb1e18ce,64c801637be46e9a4f7b0db9,up,-1,0.75,0.5,12,0,1.5936,48,0,48,0,1,,,,,,,,,,
,,979450,001,2023-07-31_20h48.02.020,arm3_eps,2022.2.5,Win32,60.06366749,611d05c997db7c2653864ff4,64c7fed44a04f777bb1e18ce,64c801637be46e9a4f7b0db9,up,-1,0.75,0.5,12,0,1.9735,49,0,49,0,1,,,,,,,,,,
space,1.99,979450,001,2023-07-31_20h48.02.020,arm3_eps,2022.2.5,Win32,60.06366749,611d05c997db7c2653864ff4,64c7fed44a04f777bb1e18ce,64c801637be46e9a4f7b0db9,,,,,,,,,,,,,,,,,,,,,,
space,3.3899,979450,001,2023-07-31_20h48.02.020,arm3_eps,2022.2.5,Win32,60.06366749,611d05c997db7c2653864ff4,64c7fed44a04f777bb1e18ce,64c801637be46e9a4f7b0db9,up,-1,0.75,0.05,-1,0,1.3026,,,,,,0,0,0,0,1,,,,,
,,979450,001,2023-07-31_20h48.02.020,arm3_eps,2022.2.5,Win32,60.06366749,611d05c997db7c2653864ff4,64c7fed44a04f777bb1e18ce,64c801637be46e9a4f7b0db9,down,-1,0.75,0.05,0,0,1.205,,,,,,1,0,1,0,1,,,,,
,,979450,001,2023-07-31_20h48.02.020,arm3_eps,2022.2.5,Win32,60.06366749,611d05c997db7c2653864ff4,64c7fed44a04f777bb1e18ce,64c801637be46e9a4f7b0db9,up,-1,0.75,0.05,-1,0,1.1287,,,,,,2,0,2,0,1,,,,,
,,979450,001,2023-07-31_20h48.02.020,arm3_eps,2022.2.5,Win32,60.06366749,611d05c997db7c2653864ff4,64c7fed44a04f777bb1e18ce,64c801637be46e9a4f7b0db9,down,-1,0.75,0.05,0,0,1.026,,,,,,3,0,3,0,1,,,,,
,,979450,001,2023-07-31_20h48.02.020,arm3_eps,2022.2.5,Win32,60.06366749,611d05c997db7c2653864ff4,64c7fed44a04f777bb1e18ce,64c801637be46e9a4f7b0db9,up,-1,0.75,0.05,-1,0,1.3372,,,,,,4,0,4,0,1,,,,,
,,979450,001,2023-07-31_20h48.02.020,arm3_eps,2022.2.5,Win32,60.06366749,611d05c997db7c2653864ff4,64c7fed44a04f777bb1e18ce,64c801637be46e9a4f7b0db9,down,-1,0.75,0.05,0,0,0.9293,,,,,,5,0,5,0,1,,,,,
,,979450,001,2023-07-31_20h48.02.020,arm3_eps,2022.2.5,Win32,60.06366749,611d05c997db7c2653864ff4,64c7fed44a04f777bb1e18ce,64c801637be46e9a4f7b0db9,down,-1,0.75,0.05,0,0,0.988,,,,,,6,0,6,0,1,,,,,
,,979450,001,2023-07-31_20h48.02.020,arm3_eps,2022.2.5,Win32,60.06366749,611d05c997db7c2653864ff4,64c7fed44a04f777bb1e18ce,64c801637be46e9a4f7b0db9,up,-1,0.75,0.05,0,0,1.0347,,,,,,7,0,7,0,1,,,,,
,,979450,001,2023-07-31_20h48.02.020,arm3_eps,2022.2.5,Win32,60.06366749,611d05c997db7c2653864ff4,64c7fed44a04f777bb1e18ce,64c801637be46e9a4f7b0db9,down,-1,0.75,0.05,1,0,2.0201,,,,,,8,0,8,0,1,,,,,
,,979450,001,2023-07-31_20h48.02.020,arm3_eps,2022.2.5,Win32,60.06366749,611d05c997db7c2653864ff4,64c7fed44a04f777bb1e18ce,64c801637be46e9a4f7b0db9,up,-1,0.75,0.05,1,0,0.9774,,,,,,9,0,9,0,1,,,,,
,,979450,001,2023-07-31_20h48.02.020,arm3_eps,2022.2.5,Win32,60.06366749,611d05c997db7c2653864ff4,64c7fed44a04f777bb1e18ce,64c801637be46e9a4f7b0db9,up,-1,0.75,0.05,0,0,1.0757,,,,,,10,0,10,0,1,,,,,
,,979450,001,2023-07-31_20h48.02.020,arm3_eps,2022.2.5,Win32,60.06366749,611d05c997db7c2653864ff4,64c7fed44a04f777bb1e18ce,64c801637be46e9a4f7b0db9,down,-1,0.75,0.05,0,0,1.0409,,,,,,11,0,11,0,1,,,,,
,,979450,001,2023-07-31_20h48.02.020,arm3_eps,2022.2.5,Win32,60.06366749,611d05c997db7c2653864ff4,64c7fed44a04f777bb1e18ce,64c801637be46e9a4f7b0db9,down,-1,0.75,0.05,1,0,1.0642,,,,,,12,0,12,0,1,,,,,
,,979450,001,2023-07-31_20h48.02.020,arm3_eps,2022.2.5,Win32,60.06366749,611d05c997db7c2653864ff4,64c7fed44a04f777bb1e18ce,64c801637be46e9a4f7b0db9,down,-1,0.75,0.05,2,0,1.108,,,,,,13,0,13,0,1,,,,,
,,979450,001,2023-07-31_20h48.02.020,arm3_eps,2022.2.5,Win32,60.06366749,611d05c997db7c2653864ff4,64c7fed44a04f777bb1e18ce,64c801637be46e9a4f7b0db9,down,-1,0.75,0.05,3,0,1.0674,,,,,,14,0,14,0,1,,,,,
,,979450,001,2023-07-31_20h48.02.020,arm3_eps,2022.2.5,Win32,60.06366749,611d05c997db7c2653864ff4,64c7fed44a04f777bb1e18ce,64c801637be46e9a4f7b0db9,down,1,0.75,0.05,4,0,1.0062,,,,,,15,0,15,0,1,,,,,
,,979450,001,2023-07-31_20h48.02.020,arm3_eps,2022.2.5,Win32,60.06366749,611d05c997db7c2653864ff4,64c7fed44a04f777bb1e18ce,64c801637be46e9a4f7b0db9,up,1,0.75,0.05,4,0,2.1054,,,,,,16,0,16,0,1,,,,,
,,979450,001,2023-07-31_20h48.02.020,arm3_eps,2022.2.5,Win32,60.06366749,611d05c997db7c2653864ff4,64c7fed44a04f777bb1e18ce,64c801637be46e9a4f7b0db9,up,1,0.75,0.05,5,0,1.1732,,,,,,17,0,17,0,1,,,,,
,,979450,001,2023-07-31_20h48.02.020,arm3_eps,2022.2.5,Win32,60.06366749,611d05c997db7c2653864ff4,64c7fed44a04f777bb1e18ce,64c801637be46e9a4f7b0db9,up,1,0.75,0.05,5,0,1.0548,,,,,,18,0,18,0,1,,,,,
,,979450,001,2023-07-31_20h48.02.020,arm3_eps,2022.2.5,Win32,60.06366749,611d05c997db7c2653864ff4,64c7fed44a04f777bb1e18ce,64c801637be46e9a4f7b0db9,up,1,0.75,0.05,6,0,1.0877,,,,,,19,0,19,0,1,,,,,
,,979450,001,2023-07-31_20h48.02.020,arm3_eps,2022.2.5,Win32,60.06366749,611d05c997db7c2653864ff4,64c7fed44a04f777bb1e18ce,64c801637be46e9a4f7b0db9,up,1,0.75,0.05,6,0,1.0576,,,,,,20,0,20,0,1,,,,,
,,979450,001,2023-07-31_20h48.02.020,arm3_eps,2022.2.5,Win32,60.06366749,611d05c997db7c2653864ff4,64c7fed44a04f777bb1e18ce,64c801637be46e9a4f7b0db9,down,-1,0.75,0.05,5,0,1.2077,,,,,,21,0,21,0,1,,,,,
,,979450,001,2023-07-31_20h48.02.020,arm3_eps,2022.2.5,Win32,60.06366749,611d05c997db7c2653864ff4,64c7fed44a04f777bb1e18ce,64c801637be46e9a4f7b0db9,up,-1,0.75,0.05,5,0,0.9876,,,,,,22,0,22,0,1,,,,,
,,979450,001,2023-07-31_20h48.02.020,arm3_eps,2022.2.5,Win32,60.06366749,611d05c997db7c2653864ff4,64c7fed44a04f777bb1e18ce,64c801637be46e9a4f7b0db9,down,-1,0.75,0.05,5,0,1.1382,,,,,,23,0,23,0,1,,,,,
,,979450,001,2023-07-31_20h48.02.020,arm3_eps,2022.2.5,Win32,60.06366749,611d05c997db7c2653864ff4,64c7fed44a04f777bb1e18ce,64c801637be46e9a4f7b0db9,down,-1,0.75,0.05,6,0,1.1128,,,,,,24,0,24,0,1,,,,,
,,979450,001,2023-07-31_20h48.02.020,arm3_eps,2022.2.5,Win32,60.06366749,611d05c997db7c2653864ff4,64c7fed44a04f777bb1e18ce,64c801637be46e9a4f7b0db9,down,-1,0.75,0.05,6,0,1.0785,,,,,,25,0,25,0,1,,,,,
,,979450,001,2023-07-31_20h48.02.020,arm3_eps,2022.2.5,Win32,60.06366749,611d05c997db7c2653864ff4,64c7fed44a04f777bb1e18ce,64c801637be46e9a4f7b0db9,down,-1,0.75,0.05,7,0,1.2556,,,,,,26,0,26,0,1,,,,,
,,979450,001,2023-07-31_20h48.02.020,arm3_eps,2022.2.5,Win32,60.06366749,611d05c997db7c2653864ff4,64c7fed44a04f777bb1e18ce,64c801637be46e9a4f7b0db9,up,-1,0.75,0.05,6,0,1.7234,,,,,,27,0,27,0,1,,,,,
,,979450,001,2023-07-31_20h48.02.020,arm3_eps,2022.2.5,Win32,60.06366749,611d05c997db7c2653864ff4,64c7fed44a04f777bb1e18ce,64c801637be46e9a4f7b0db9,down,-1,0.75,0.05,6,0,1.2239,,,,,,28,0,28,0,1,,,,,
,,979450,001,2023-07-31_20h48.02.020,arm3_eps,2022.2.5,Win32,60.06366749,611d05c997db7c2653864ff4,64c7fed44a04f777bb1e18ce,64c801637be46e9a4f7b0db9,down,-1,0.75,0.05,7,0,1.7884,,,,,,29,0,29,0,1,,,,,
,,979450,001,2023-07-31_20h48.02.020,arm3_eps,2022.2.5,Win32,60.06366749,611d05c997db7c2653864ff4,64c7fed44a04f777bb1e18ce,64c801637be46e9a4f7b0db9,up,-1,0.75,0.05,6,0,1.4283,,,,,,30,0,30,0,1,,,,,
,,979450,001,2023-07-31_20h48.02.020,arm3_eps,2022.2.5,Win32,60.06366749,611d05c997db7c2653864ff4,64c7fed44a04f777bb1e18ce,64c801637be46e9a4f7b0db9,down,-1,0.75,0.05,7,0,0.9039,,,,,,31,0,31,0,1,,,,,
,,979450,001,2023-07-31_20h48.02.020,arm3_eps,2022.2.5,Win32,60.06366749,611d05c997db7c2653864ff4,64c7fed44a04f777bb1e18ce,64c801637be46e9a4f7b0db9,up,-1,0.75,0.05,7,0,1.5406,,,,,,32,0,32,0,1,,,,,
,,979450,001,2023-07-31_20h48.02.020,arm3_eps,2022.2.5,Win32,60.06366749,611d05c997db7c2653864ff4,64c7fed44a04f777bb1e18ce,64c801637be46e9a4f7b0db9,up,-1,0.75,0.05,6,0,1.0926,,,,,,33,0,33,0,1,,,,,
,,979450,001,2023-07-31_20h48.02.020,arm3_eps,2022.2.5,Win32,60.06366749,611d05c997db7c2653864ff4,64c7fed44a04f777bb1e18ce,64c801637be46e9a4f7b0db9,up,-1,0.75,0.05,6,0,1.7227,,,,,,34,0,34,0,1,,,,,
,,979450,001,2023-07-31_20h48.02.020,arm3_eps,2022.2.5,Win32,60.06366749,611d05c997db7c2653864ff4,64c7fed44a04f777bb1e18ce,64c801637be46e9a4f7b0db9,down,-1,0.75,0.05,7,0,1.1098,,,,,,35,0,35,0,1,,,,,
,,979450,001,2023-07-31_20h48.02.020,arm3_eps,2022.2.5,Win32,60.06366749,611d05c997db7c2653864ff4,64c7fed44a04f777bb1e18ce,64c801637be46e9a4f7b0db9,down,-1,0.75,0.05,8,0,1.0247,,,,,,36,0,36,0,1,,,,,
,,979450,001,2023-07-31_20h48.02.020,arm3_eps,2022.2.5,Win32,60.06366749,611d05c997db7c2653864ff4,64c7fed44a04f777bb1e18ce,64c801637be46e9a4f7b0db9,down,-1,0.75,0.05,8,0,1.2563,,,,,,37,0,37,0,1,,,,,
,,979450,001,2023-07-31_20h48.02.020,arm3_eps,2022.2.5,Win32,60.06366749,611d05c997db7c2653864ff4,64c7fed44a04f777bb1e18ce,64c801637be46e9a4f7b0db9,down,1,0.75,0.05,9,0,1.3487,,,,,,38,0,38,0,1,,,,,
,,979450,001,2023-07-31_20h48.02.020,arm3_eps,2022.2.5,Win32,60.06366749,611d05c997db7c2653864ff4,64c7fed44a04f777bb1e18ce,64c801637be46e9a4f7b0db9,up,1,0.75,0.05,10,0,2.0184,,,,,,39,0,39,0,1,,,,,
,,979450,001,2023-07-31_20h48.02.020,arm3_eps,2022.2.5,Win32,60.06366749,611d05c997db7c2653864ff4,64c7fed44a04f777bb1e18ce,64c801637be46e9a4f7b0db9,down,1,0.75,0.05,9,0,1.1084,,,,,,40,0,40,0,1,,,,,
,,979450,001,2023-07-31_20h48.02.020,arm3_eps,2022.2.5,Win32,60.06366749,611d05c997db7c2653864ff4,64c7fed44a04f777bb1e18ce,64c801637be46e9a4f7b0db9,up,1,0.75,0.05,9,0,0.8881,,,,,,41,0,41,0,1,,,,,
,,979450,001,2023-07-31_20h48.02.020,arm3_eps,2022.2.5,Win32,60.06366749,611d05c997db7c2653864ff4,64c7fed44a04f777bb1e18ce,64c801637be46e9a4f7b0db9,up,1,0.75,0.05,10,0,0.9878,,,,,,42,0,42,0,1,,,,,
,,979450,001,2023-07-31_20h48.02.020,arm3_eps,2022.2.5,Win32,60.06366749,611d05c997db7c2653864ff4,64c7fed44a04f777bb1e18ce,64c801637be46e9a4f7b0db9,down,-1,0.75,0.05,10,0,1.3959,,,,,,43,0,43,0,1,,,,,
,,979450,001,2023-07-31_20h48.02.020,arm3_eps,2022.2.5,Win32,60.06366749,611d05c997db7c2653864ff4,64c7fed44a04f777bb1e18ce,64c801637be46e9a4f7b0db9,up,-1,0.75,0.05,9,0,1.4703,,,,,,44,0,44,0,1,,,,,
,,979450,001,2023-07-31_20h48.02.020,arm3_eps,2022.2.5,Win32,60.06366749,611d05c997db7c2653864ff4,64c7fed44a04f777bb1e18ce,64c801637be46e9a4f7b0db9,up,-1,0.75,0.05,8,0,1.2709,,,,,,45,0,45,0,1,,,,,
,,979450,001,2023-07-31_20h48.02.020,arm3_eps,2022.2.5,Win32,60.06366749,611d05c997db7c2653864ff4,64c7fed44a04f777bb1e18ce,64c801637be46e9a4f7b0db9,down,-1,0.75,0.05,9,0,0.9575,,,,,,46,0,46,0,1,,,,,
,,979450,001,2023-07-31_20h48.02.020,arm3_eps,2022.2.5,Win32,60.06366749,611d05c997db7c2653864ff4,64c7fed44a04f777bb1e18ce,64c801637be46e9a4f7b0db9,down,-1,0.75,0.05,10,0,0.9897,,,,,,47,0,47,0,1,,,,,
,,979450,001,2023-07-31_20h48.02.020,arm3_eps,2022.2.5,Win32,60.06366749,611d05c997db7c2653864ff4,64c7fed44a04f777bb1e18ce,64c801637be46e9a4f7b0db9,up,-1,0.75,0.05,9,0,1.1387,,,,,,48,0,48,0,1,,,,,
,,979450,001,2023-07-31_20h48.02.020,arm3_eps,2022.2.5,Win32,60.06366749,611d05c997db7c2653864ff4,64c7fed44a04f777bb1e18ce,64c801637be46e9a4f7b0db9,down,-1,0.75,0.05,10,0,1.0925,,,,,,49,0,49,0,1,,,,,
,,979450,001,2023-07-31_20h48.02.020,arm3_eps,2022.2.5,Win32,60.06366749,611d05c997db7c2653864ff4,64c7fed44a04f777bb1e18ce,64c801637be46e9a4f7b0db9,up,-1,0.75,0.05,9,0,1.1959,,,,,,50,0,50,0,1,,,,,
,,979450,001,2023-07-31_20h48.02.020,arm3_eps,2022.2.5,Win32,60.06366749,611d05c997db7c2653864ff4,64c7fed44a04f777bb1e18ce,64c801637be46e9a4f7b0db9,down,-1,0.75,0.05,9,0,0.86,,,,,,51,0,51,0,1,,,,,
,,979450,001,2023-07-31_20h48.02.020,arm3_eps,2022.2.5,Win32,60.06366749,611d05c997db7c2653864ff4,64c7fed44a04f777bb1e18ce,64c801637be46e9a4f7b0db9,down,-1,0.75,0.05,10,0,1.0049,,,,,,52,0,52,0,1,,,,,
,,979450,001,2023-07-31_20h48.02.020,arm3_eps,2022.2.5,Win32,60.06366749,611d05c997db7c2653864ff4,64c7fed44a04f777bb1e18ce,64c801637be46e9a4f7b0db9,down,-1,0.75,0.05,10,0,1.1243,,,,,,53,0,53,0,1,,,,,
,,979450,001,2023-07-31_20h48.02.020,arm3_eps,2022.2.5,Win32,60.06366749,611d05c997db7c2653864ff4,64c7fed44a04f777bb1e18ce,64c801637be46e9a4f7b0db9,up,-1,0.75,0.05,9,0,1.1046,,,,,,54,0,54,0,1,,,,,
,,979450,001,2023-07-31_20h48.02.020,arm3_eps,2022.2.5,Win32,60.06366749,611d05c997db7c2653864ff4,64c7fed44a04f777bb1e18ce,64c801637be46e9a4f7b0db9,down,-1,0.75,0.05,10,0,1.0751,,,,,,55,0,55,0,1,,,,,
,,979450,001,2023-07-31_20h48.02.020,arm3_eps,2022.2.5,Win32,60.06366749,611d05c997db7c2653864ff4,64c7fed44a04f777bb1e18ce,64c801637be46e9a4f7b0db9,up,-1,0.75,0.05,10,0,1.1531,,,,,,56,0,56,0,1,,,,,
,,979450,001,2023-07-31_20h48.02.020,arm3_eps,2022.2.5,Win32,60.06366749,611d05c997db7c2653864ff4,64c7fed44a04f777bb1e18ce,64c801637be46e9a4f7b0db9,up,-1,0.75,0.05,9,0,1.0871,,,,,,57,0,57,0,1,,,,,
,,979450,001,2023-07-31_20h48.02.020,arm3_eps,2022.2.5,Win32,60.06366749,611d05c997db7c2653864ff4,64c7fed44a04f777bb1e18ce,64c801637be46e9a4f7b0db9,down,-1,0.75,0.05,10,0,1.1721,,,,,,58,0,58,0,1,,,,,
,,979450,001,2023-07-31_20h48.02.020,arm3_eps,2022.2.5,Win32,60.06366749,611d05c997db7c2653864ff4,64c7fed44a04f777bb1e18ce,64c801637be46e9a4f7b0db9,down,-1,0.75,0.05,11,0,1.1372,,,,,,59,0,59,0,1,,,,,
,,979450,001,2023-07-31_20h48.02.020,arm3_eps,2022.2.5,Win32,60.06366749,611d05c997db7c2653864ff4,64c7fed44a04f777bb1e18ce,64c801637be46e9a4f7b0db9,up,-1,0.75,0.05,10,0,1.7737,,,,,,60,0,60,0,1,,,,,
,,979450,001,2023-07-31_20h48.02.020,arm3_eps,2022.2.5,Win32,60.06366749,611d05c997db7c2653864ff4,64c7fed44a04f777bb1e18ce,64c801637be46e9a4f7b0db9,up,-1,0.75,0.05,9,0,1.9037,,,,,,61,0,61,0,1,,,,,
,,979450,001,2023-07-31_20h48.02.020,arm3_eps,2022.2.5,Win32,60.06366749,611d05c997db7c2653864ff4,64c7fed44a04f777bb1e18ce,64c801637be46e9a4f7b0db9,up,-1,0.75,0.05,9,0,2.175,,,,,,62,0,62,0,1,,,,,
,,979450,001,2023-07-31_20h48.02.020,arm3_eps,2022.2.5,Win32,60.06366749,611d05c997db7c2653864ff4,64c7fed44a04f777bb1e18ce,64c801637be46e9a4f7b0db9,up,-1,0.75,0.05,8,0,1.1933,,,,,,63,0,63,0,1,,,,,
,,979450,001,2023-07-31_20h48.02.020,arm3_eps,2022.2.5,Win32,60.06366749,611d05c997db7c2653864ff4,64c7fed44a04f777bb1e18ce,64c801637be46e9a4f7b0db9,up,-1,0.75,0.05,7,0,1.3443,,,,,,64,0,64,0,1,,,,,
,,979450,001,2023-07-31_20h48.02.020,arm3_eps,2022.2.5,Win32,60.06366749,611d05c997db7c2653864ff4,64c7fed44a04f777bb1e18ce,64c801637be46e9a4f7b0db9,down,-1,0.75,0.05,8,0,1.4863,,,,,,65,0,65,0,1,,,,,
,,979450,001,2023-07-31_20h48.02.020,arm3_eps,2022.2.5,Win32,60.06366749,611d05c997db7c2653864ff4,64c7fed44a04f777bb1e18ce,64c801637be46e9a4f7b0db9,down,-1,0.75,0.05,9,0,1.0109,,,,,,66,0,66,0,1,,,,,
,,979450,001,2023-07-31_20h48.02.020,arm3_eps,2022.2.5,Win32,60.06366749,611d05c997db7c2653864ff4,64c7fed44a04f777bb1e18ce,64c801637be46e9a4f7b0db9,down,-1,0.75,0.05,10,0,1.2281,,,,,,67,0,67,0,1,,,,,
,,979450,001,2023-07-31_20h48.02.020,arm3_eps,2022.2.5,Win32,60.06366749,611d05c997db7c2653864ff4,64c7fed44a04f777bb1e18ce,64c801637be46e9a4f7b0db9,down,-1,0.75,0.05,11,0,3.1307,,,,,,68,0,68,0,1,,,,,
,,979450,001,2023-07-31_20h48.02.020,arm3_eps,2022.2.5,Win32,60.06366749,611d05c997db7c2653864ff4,64c7fed44a04f777bb1e18ce,64c801637be46e9a4f7b0db9,down,-1,0.75,0.05,11,0,1.5389,,,,,,69,0,69,0,1,,,,,
,,979450,001,2023-07-31_20h48.02.020,arm3_eps,2022.2.5,Win32,60.06366749,611d05c997db7c2653864ff4,64c7fed44a04f777bb1e18ce,64c801637be46e9a4f7b0db9,up,-1,0.75,0.05,10,0,1.3235,,,,,,70,0,70,0,1,,,,,
,,979450,001,2023-07-31_20h48.02.020,arm3_eps,2022.2.5,Win32,60.06366749,611d05c997db7c2653864ff4,64c7fed44a04f777bb1e18ce,64c801637be46e9a4f7b0db9,down,-1,0.75,0.05,11,0,1.289,,,,,,71,0,71,0,1,,,,,
,,979450,001,2023-07-31_20h48.02.020,arm3_eps,2022.2.5,Win32,60.06366749,611d05c997db7c2653864ff4,64c7fed44a04f777bb1e18ce,64c801637be46e9a4f7b0db9,down,-1,0.75,0.05,12,0,1.2278,,,,,,72,0,72,0,1,,,,,
,,979450,001,2023-07-31_20h48.02.020,arm3_eps,2022.2.5,Win32,60.06366749,611d05c997db7c2653864ff4,64c7fed44a04f777bb1e18ce,64c801637be46e9a4f7b0db9,down,-1,0.75,0.05,13,0,0.9732,,,,,,73,0,73,0,1,,,,,
,,979450,001,2023-07-31_20h48.02.020,arm3_eps,2022.2.5,Win32,60.06366749,611d05c997db7c2653864ff4,64c7fed44a04f777bb1e18ce,64c801637be46e9a4f7b0db9,down,-1,0.75,0.05,13,0,1.0852,,,,,,74,0,74,0,1,,,,,
,,979450,001,2023-07-31_20h48.02.020,arm3_eps,2022.2.5,Win32,60.06366749,611d05c997db7c2653864ff4,64c7fed44a04f777bb1e18ce,64c801637be46e9a4f7b0db9,down,-1,0.75,0.05,14,0,1.045,,,,,,75,0,75,0,1,,,,,
,,979450,001,2023-07-31_20h48.02.020,arm3_eps,2022.2.5,Win32,60.06366749,611d05c997db7c2653864ff4,64c7fed44a04f777bb1e18ce,64c801637be46e9a4f7b0db9,up,-1,0.75,0.05,13,0,1.6083,,,,,,76,0,76,0,1,,,,,
,,979450,001,2023-07-31_20h48.02.020,arm3_eps,2022.2.5,Win32,60.06366749,611d05c997db7c2653864ff4,64c7fed44a04f777bb1e18ce,64c801637be46e9a4f7b0db9,down,1,0.75,0.05,13,0,1.3399,,,,,,77,0,77,0,1,,,,,
,,979450,001,2023-07-31_20h48.02.020,arm3_eps,2022.2.5,Win32,60.06366749,611d05c997db7c2653864ff4,64c7fed44a04f777bb1e18ce,64c801637be46e9a4f7b0db9,up,1,0.75,0.05,13,0,1.3202,,,,,,78,0,78,0,1,,,,,
,,979450,001,2023-07-31_20h48.02.020,arm3_eps,2022.2.5,Win32,60.06366749,611d05c997db7c2653864ff4,64c7fed44a04f777bb1e18ce,64c801637be46e9a4f7b0db9,up,1,0.75,0.05,13,0,1.1567,,,,,,79,0,79,0,1,,,,,
,,979450,001,2023-07-31_20h48.02.020,arm3_eps,2022.2.5,Win32,60.06366749,611d05c997db7c2653864ff4,64c7fed44a04f777bb1e18ce,64c801637be46e9a4f7b0db9,down,1,0.75,0.05,12,0,1.1774,,,,,,80,0,80,0,1,,,,,
,,979450,001,2023-07-31_20h48.02.020,arm3_eps,2022.2.5,Win32,60.06366749,611d05c997db7c2653864ff4,64c7fed44a04f777bb1e18ce,64c801637be46e9a4f7b0db9,up,1,0.75,0.05,13,0,1.0552,,,,,,81,0,81,0,1,,,,,
,,979450,001,2023-07-31_20h48.02.020,arm3_eps,2022.2.5,Win32,60.06366749,611d05c997db7c2653864ff4,64c7fed44a04f777bb1e18ce,64c801637be46e9a4f7b0db9,up,1,0.75,0.05,14,0,1.0072,,,,,,82,0,82,0,1,,,,,
,,979450,001,2023-07-31_20h48.02.020,arm3_eps,2022.2.5,Win32,60.06366749,611d05c997db7c2653864ff4,64c7fed44a04f777bb1e18ce,64c801637be46e9a4f7b0db9,up,1,0.75,0.05,14,0,1.055,,,,,,83,0,83,0,1,,,,,
,,979450,001,2023-07-31_20h48.02.020,arm3_eps,2022.2.5,Win32,60.06366749,611d05c997db7c2653864ff4,64c7fed44a04f777bb1e18ce,64c801637be46e9a4f7b0db9,up,1,0.75,0.05,15,0,0.9889,,,,,,84,0,84,0,1,,,,,
,,979450,001,2023-07-31_20h48.02.020,arm3_eps,2022.2.5,Win32,60.06366749,611d05c997db7c2653864ff4,64c7fed44a04f777bb1e18ce,64c801637be46e9a4f7b0db9,up,1,0.75,0.05,16,0,1.0063,,,,,,85,0,85,0,1,,,,,
,,979450,001,2023-07-31_20h48.02.020,arm3_eps,2022.2.5,Win32,60.06366749,611d05c997db7c2653864ff4,64c7fed44a04f777bb1e18ce,64c801637be46e9a4f7b0db9,up,1,0.75,0.05,16,0,1.2919,,,,,,86,0,86,0,1,,,,,
,,979450,001,2023-07-31_20h48.02.020,arm3_eps,2022.2.5,Win32,60.06366749,611d05c997db7c2653864ff4,64c7fed44a04f777bb1e18ce,64c801637be46e9a4f7b0db9,down,1,0.75,0.05,15,0,1.1208,,,,,,87,0,87,0,1,,,,,
,,979450,001,2023-07-31_20h48.02.020,arm3_eps,2022.2.5,Win32,60.06366749,611d05c997db7c2653864ff4,64c7fed44a04f777bb1e18ce,64c801637be46e9a4f7b0db9,up,1,0.75,0.05,16,0,1.4117,,,,,,88,0,88,0,1,,,,,
,,979450,001,2023-07-31_20h48.02.020,arm3_eps,2022.2.5,Win32,60.06366749,611d05c997db7c2653864ff4,64c7fed44a04f777bb1e18ce,64c801637be46e9a4f7b0db9,up,1,0.75,0.05,17,0,1.5383,,,,,,89,0,89,0,1,,,,,
,,979450,001,2023-07-31_20h48.02.020,arm3_eps,2022.2.5,Win32,60.06366749,611d05c997db7c2653864ff4,64c7fed44a04f777bb1e18ce,64c801637be46e9a4f7b0db9,up,1,0.75,0.05,18,0,1.4539,,,,,,90,0,90,0,1,,,,,
,,979450,001,2023-07-31_20h48.02.020,arm3_eps,2022.2.5,Win32,60.06366749,611d05c997db7c2653864ff4,64c7fed44a04f777bb1e18ce,64c801637be46e9a4f7b0db9,up,1,0.75,0.05,19,0,1.1709,,,,,,91,0,91,0,1,,,,,
,,979450,001,2023-07-31_20h48.02.020,arm3_eps,2022.2.5,Win32,60.06366749,611d05c997db7c2653864ff4,64c7fed44a04f777bb1e18ce,64c801637be46e9a4f7b0db9,up,1,0.75,0.05,19,0,1.9379,,,,,,92,0,92,0,1,,,,,
,,979450,001,2023-07-31_20h48.02.020,arm3_eps,2022.2.5,Win32,60.06366749,611d05c997db7c2653864ff4,64c7fed44a04f777bb1e18ce,64c801637be46e9a4f7b0db9,up,1,0.75,0.05,20,0,1.156,,,,,,93,0,93,0,1,,,,,
,,979450,001,2023-07-31_20h48.02.020,arm3_eps,2022.2.5,Win32,60.06366749,611d05c997db7c2653864ff4,64c7fed44a04f777bb1e18ce,64c801637be46e9a4f7b0db9,up,1,0.75,0.05,20,0,1.0877,,,,,,94,0,94,0,1,,,,,
,,979450,001,2023-07-31_20h48.02.020,arm3_eps,2022.2.5,Win32,60.06366749,611d05c997db7c2653864ff4,64c7fed44a04f777bb1e18ce,64c801637be46e9a4f7b0db9,up,1,0.75,0.05,21,0,1.5919,,,,,,95,0,95,0,1,,,,,
,,979450,001,2023-07-31_20h48.02.020,arm3_eps,2022.2.5,Win32,60.06366749,611d05c997db7c2653864ff4,64c7fed44a04f777bb1e18ce,64c801637be46e9a4f7b0db9,down,1,0.75,0.05,21,0,1.3772,,,,,,96,0,96,0,1,,,,,
,,979450,001,2023-07-31_20h48.02.020,arm3_eps,2022.2.5,Win32,60.06366749,611d05c997db7c2653864ff4,64c7fed44a04f777bb1e18ce,64c801637be46e9a4f7b0db9,up,1,0.75,0.05,22,0,1.1779,,,,,,97,0,97,0,1,,,,,
,,979450,001,2023-07-31_20h48.02.020,arm3_eps,2022.2.5,Win32,60.06366749,611d05c997db7c2653864ff4,64c7fed44a04f777bb1e18ce,64c801637be46e9a4f7b0db9,up,1,0.75,0.05,23,0,1.0873,,,,,,98,0,98,0,1,,,,,
,,979450,001,2023-07-31_20h48.02.020,arm3_eps,2022.2.5,Win32,60.06366749,611d05c997db7c2653864ff4,64c7fed44a04f777bb1e18ce,64c801637be46e9a4f7b0db9,up,1,0.75,0.05,24,0,1.2271,,,,,,99,0,99,0,1,,,,,
,,979450,001,2023-07-31_20h48.02.020,arm3_eps,2022.2.5,Win32,60.06366749,611d05c997db7c2653864ff4,64c7fed44a04f777bb1e18ce,64c801637be46e9a4f7b0db9,down,1,0.75,0.05,23,0,2.0544,,,,,,100,0,100,0,1,,,,,
,,979450,001,2023-07-31_20h48.02.020,arm3_eps,2022.2.5,Win32,60.06366749,611d05c997db7c2653864ff4,64c7fed44a04f777bb1e18ce,64c801637be46e9a4f7b0db9,up,1,0.75,0.05,24,0,1.1744,,,,,,101,0,101,0,1,,,,,
,,979450,001,2023-07-31_20h48.02.020,arm3_eps,2022.2.5,Win32,60.06366749,611d05c997db7c2653864ff4,64c7fed44a04f777bb1e18ce,64c801637be46e9a4f7b0db9,up,1,0.75,0.05,24,0,1.0863,,,,,,102,0,102,0,1,,,,,
,,979450,001,2023-07-31_20h48.02.020,arm3_eps,2022.2.5,Win32,60.06366749,611d05c997db7c2653864ff4,64c7fed44a04f777bb1e18ce,64c801637be46e9a4f7b0db9,down,1,0.75,0.05,23,0,1.7706,,,,,,103,0,103,0,1,,,,,
,,979450,001,2023-07-31_20h48.02.020,arm3_eps,2022.2.5,Win32,60.06366749,611d05c997db7c2653864ff4,64c7fed44a04f777bb1e18ce,64c801637be46e9a4f7b0db9,up,1,0.75,0.05,24,0,0.8774,,,,,,104,0,104,0,1,,,,,
,,979450,001,2023-07-31_20h48.02.020,arm3_eps,2022.2.5,Win32,60.06366749,611d05c997db7c2653864ff4,64c7fed44a04f777bb1e18ce,64c801637be46e9a4f7b0db9,up,1,0.75,0.05,25,0,0.8596,,,,,,105,0,105,0,1,,,,,
,,979450,001,2023-07-31_20h48.02.020,arm3_eps,2022.2.5,Win32,60.06366749,611d05c997db7c2653864ff4,64c7fed44a04f777bb1e18ce,64c801637be46e9a4f7b0db9,up,1,0.75,0.05,26,0,1.121,,,,,,106,0,106,0,1,,,,,
,,979450,001,2023-07-31_20h48.02.020,arm3_eps,2022.2.5,Win32,60.06366749,611d05c997db7c2653864ff4,64c7fed44a04f777bb1e18ce,64c801637be46e9a4f7b0db9,up,1,0.75,0.05,27,0,1.3573,,,,,,107,0,107,0,1,,,,,
,,979450,001,2023-07-31_20h48.02.020,arm3_eps,2022.2.5,Win32,60.06366749,611d05c997db7c2653864ff4,64c7fed44a04f777bb1e18ce,64c801637be46e9a4f7b0db9,up,1,0.75,0.05,27,0,1.2383,,,,,,108,0,108,0,1,,,,,
,,979450,001,2023-07-31_20h48.02.020,arm3_eps,2022.2.5,Win32,60.06366749,611d05c997db7c2653864ff4,64c7fed44a04f777bb1e18ce,64c801637be46e9a4f7b0db9,down,1,0.75,0.05,26,0,1.1724,,,,,,109,0,109,0,1,,,,,
,,979450,001,2023-07-31_20h48.02.020,arm3_eps,2022.2.5,Win32,60.06366749,611d05c997db7c2653864ff4,64c7fed44a04f777bb1e18ce,64c801637be46e9a4f7b0db9,up,1,0.75,0.05,27,0,0.9375,,,,,,110,0,110,0,1,,,,,
,,979450,001,2023-07-31_20h48.02.020,arm3_eps,2022.2.5,Win32,60.06366749,611d05c997db7c2653864ff4,64c7fed44a04f777bb1e18ce,64c801637be46e9a4f7b0db9,up,1,0.75,0.05,27,0,1.0071,,,,,,111,0,111,0,1,,,,,
,,979450,001,2023-07-31_20h48.02.020,arm3_eps,2022.2.5,Win32,60.06366749,611d05c997db7c2653864ff4,64c7fed44a04f777bb1e18ce,64c801637be46e9a4f7b0db9,up,1,0.75,0.05,27,0,1.0723,,,,,,112,0,112,0,1,,,,,
,,979450,001,2023-07-31_20h48.02.020,arm3_eps,2022.2.5,Win32,60.06366749,611d05c997db7c2653864ff4,64c7fed44a04f777bb1e18ce,64c801637be46e9a4f7b0db9,up,1,0.75,0.05,28,0,0.8405,,,,,,113,0,113,0,1,,,,,
,,979450,001,2023-07-31_20h48.02.020,arm3_eps,2022.2.5,Win32,60.06366749,611d05c997db7c2653864ff4,64c7fed44a04f777bb1e18ce,64c801637be46e9a4f7b0db9,up,1,0.75,0.05,29,0,0.8903,,,,,,114,0,114,0,1,,,,,
,,979450,001,2023-07-31_20h48.02.020,arm3_eps,2022.2.5,Win32,60.06366749,611d05c997db7c2653864ff4,64c7fed44a04f777bb1e18ce,64c801637be46e9a4f7b0db9,up,1,0.75,0.05,30,0,1.4727,,,,,,115,0,115,0,1,,,,,
,,979450,001,2023-07-31_20h48.02.020,arm3_eps,2022.2.5,Win32,60.06366749,611d05c997db7c2653864ff4,64c7fed44a04f777bb1e18ce,64c801637be46e9a4f7b0db9,up,1,0.75,0.05,31,0,1.2903,,,,,,116,0,116,0,1,,,,,
,,979450,001,2023-07-31_20h48.02.020,arm3_eps,2022.2.5,Win32,60.06366749,611d05c997db7c2653864ff4,64c7fed44a04f777bb1e18ce,64c801637be46e9a4f7b0db9,up,1,0.75,0.05,32,0,0.9923,,,,,,117,0,117,0,1,,,,,
,,979450,001,2023-07-31_20h48.02.020,arm3_eps,2022.2.5,Win32,60.06366749,611d05c997db7c2653864ff4,64c7fed44a04f777bb1e18ce,64c801637be46e9a4f7b0db9,up,1,0.75,0.05,33,0,1.3235,,,,,,118,0,118,0,1,,,,,
,,979450,001,2023-07-31_20h48.02.020,arm3_eps,2022.2.5,Win32,60.06366749,611d05c997db7c2653864ff4,64c7fed44a04f777bb1e18ce,64c801637be46e9a4f7b0db9,up,1,0.75,0.05,34,0,0.8413,,,,,,119,0,119,0,1,,,,,
,,979450,001,2023-07-31_20h48.02.020,arm3_eps,2022.2.5,Win32,60.06366749,611d05c997db7c2653864ff4,64c7fed44a04f777bb1e18ce,64c801637be46e9a4f7b0db9,up,1,0.75,0.05,35,0,1.0465,,,,,,120,0,120,0,1,,,,,
,,979450,001,2023-07-31_20h48.02.020,arm3_eps,2022.2.5,Win32,60.06366749,611d05c997db7c2653864ff4,64c7fed44a04f777bb1e18ce,64c801637be46e9a4f7b0db9,up,1,0.75,0.05,36,0,0.9685,,,,,,121,0,121,0,1,,,,,
,,979450,001,2023-07-31_20h48.02.020,arm3_eps,2022.2.5,Win32,60.06366749,611d05c997db7c2653864ff4,64c7fed44a04f777bb1e18ce,64c801637be46e9a4f7b0db9,up,1,0.75,0.05,37,0,1.1081,,,,,,122,0,122,0,1,,,,,
,,979450,001,2023-07-31_20h48.02.020,arm3_eps,2022.2.5,Win32,60.06366749,611d05c997db7c2653864ff4,64c7fed44a04f777bb1e18ce,64c801637be46e9a4f7b0db9,up,1,0.75,0.05,38,0,0.7898,,,,,,123,0,123,0,1,,,,,
,,979450,001,2023-07-31_20h48.02.020,arm3_eps,2022.2.5,Win32,60.06366749,611d05c997db7c2653864ff4,64c7fed44a04f777bb1e18ce,64c801637be46e9a4f7b0db9,up,1,0.75,0.05,39,0,0.8794,,,,,,124,0,124,0,1,,,,,
,,979450,001,2023-07-31_20h48.02.020,arm3_eps,2022.2.5,Win32,60.06366749,611d05c997db7c2653864ff4,64c7fed44a04f777bb1e18ce,64c801637be46e9a4f7b0db9,up,1,0.75,0.05,40,0,1.1575,,,,,,125,0,125,0,1,,,,,
,,979450,001,2023-07-31_20h48.02.020,arm3_eps,2022.2.5,Win32,60.06366749,611d05c997db7c2653864ff4,64c7fed44a04f777bb1e18ce,64c801637be46e9a4f7b0db9,up,1,0.75,0.05,40,0,1.7905,,,,,,126,0,126,0,1,,,,,
,,979450,001,2023-07-31_20h48.02.020,arm3_eps,2022.2.5,Win32,60.06366749,611d05c997db7c2653864ff4,64c7fed44a04f777bb1e18ce,64c801637be46e9a4f7b0db9,up,1,0.75,0.05,41,0,0.9068,,,,,,127,0,127,0,1,,,,,
,,979450,001,2023-07-31_20h48.02.020,arm3_eps,2022.2.5,Win32,60.06366749,611d05c997db7c2653864ff4,64c7fed44a04f777bb1e18ce,64c801637be46e9a4f7b0db9,up,1,0.75,0.05,42,0,0.8777,,,,,,128,0,128,0,1,,,,,
,,979450,001,2023-07-31_20h48.02.020,arm3_eps,2022.2.5,Win32,60.06366749,611d05c997db7c2653864ff4,64c7fed44a04f777bb1e18ce,64c801637be46e9a4f7b0db9,up,1,0.75,0.05,42,0,0.9072,,,,,,129,0,129,0,1,,,,,
,,979450,001,2023-07-31_20h48.02.020,arm3_eps,2022.2.5,Win32,60.06366749,611d05c997db7c2653864ff4,64c7fed44a04f777bb1e18ce,64c801637be46e9a4f7b0db9,up,1,0.75,0.05,43,0,0.8576,,,,,,130,0,130,0,1,,,,,
,,979450,001,2023-07-31_20h48.02.020,arm3_eps,2022.2.5,Win32,60.06366749,611d05c997db7c2653864ff4,64c7fed44a04f777bb1e18ce,64c801637be46e9a4f7b0db9,up,1,0.75,0.05,44,0,0.9061,,,,,,131,0,131,0,1,,,,,
,,979450,001,2023-07-31_20h48.02.020,arm3_eps,2022.2.5,Win32,60.06366749,611d05c997db7c2653864ff4,64c7fed44a04f777bb1e18ce,64c801637be46e9a4f7b0db9,up,1,0.75,0.05,44,0,0.9285,,,,,,132,0,132,0,1,,,,,
,,979450,001,2023-07-31_20h48.02.020,arm3_eps,2022.2.5,Win32,60.06366749,611d05c997db7c2653864ff4,64c7fed44a04f777bb1e18ce,64c801637be46e9a4f7b0db9,up,1,0.75,0.05,45,0,1.0075,,,,,,133,0,133,0,1,,,,,
,,979450,001,2023-07-31_20h48.02.020,arm3_eps,2022.2.5,Win32,60.06366749,611d05c997db7c2653864ff4,64c7fed44a04f777bb1e18ce,64c801637be46e9a4f7b0db9,down,1,0.75,0.05,44,0,1.7743,,,,,,134,0,134,0,1,,,,,
,,979450,001,2023-07-31_20h48.02.020,arm3_eps,2022.2.5,Win32,60.06366749,611d05c997db7c2653864ff4,64c7fed44a04f777bb1e18ce,64c801637be46e9a4f7b0db9,up,1,0.75,0.05,45,0,0.9369,,,,,,135,0,135,0,1,,,,,
,,979450,001,2023-07-31_20h48.02.020,arm3_eps,2022.2.5,Win32,60.06366749,611d05c997db7c2653864ff4,64c7fed44a04f777bb1e18ce,64c801637be46e9a4f7b0db9,up,1,0.75,0.05,46,0,0.8381,,,,,,136,0,136,0,1,,,,,
,,979450,001,2023-07-31_20h48.02.020,arm3_eps,2022.2.5,Win32,60.06366749,611d05c997db7c2653864ff4,64c7fed44a04f777bb1e18ce,64c801637be46e9a4f7b0db9,up,1,0.75,0.05,47,0,0.9561,,,,,,137,0,137,0,1,,,,,
,,979450,001,2023-07-31_20h48.02.020,arm3_eps,2022.2.5,Win32,60.06366749,611d05c997db7c2653864ff4,64c7fed44a04f777bb1e18ce,64c801637be46e9a4f7b0db9,up,1,0.75,0.05,48,0,0.8447,,,,,,138,0,138,0,1,,,,,
,,979450,001,2023-07-31_20h48.02.020,arm3_eps,2022.2.5,Win32,60.06366749,611d05c997db7c2653864ff4,64c7fed44a04f777bb1e18ce,64c801637be46e9a4f7b0db9,up,1,0.75,0.05,49,0,0.8752,,,,,,139,0,139,0,1,,,,,
,,979450,001,2023-07-31_20h48.02.020,arm3_eps,2022.2.5,Win32,60.06366749,611d05c997db7c2653864ff4,64c7fed44a04f777bb1e18ce,64c801637be46e9a4f7b0db9,up,1,0.75,0.05,50,0,0.875,,,,,,140,0,140,0,1,,,,,
,,979450,001,2023-07-31_20h48.02.020,arm3_eps,2022.2.5,Win32,60.06366749,611d05c997db7c2653864ff4,64c7fed44a04f777bb1e18ce,64c801637be46e9a4f7b0db9,up,1,0.75,0.05,50,0,1.314,,,,,,141,0,141,0,1,,,,,
,,979450,001,2023-07-31_20h48.02.020,arm3_eps,2022.2.5,Win32,60.06366749,611d05c997db7c2653864ff4,64c7fed44a04f777bb1e18ce,64c801637be46e9a4f7b0db9,up,1,0.75,0.05,51,0,0.8745,,,,,,142,0,142,0,1,,,,,
,,979450,001,2023-07-31_20h48.02.020,arm3_eps,2022.2.5,Win32,60.06366749,611d05c997db7c2653864ff4,64c7fed44a04f777bb1e18ce,64c801637be46e9a4f7b0db9,up,1,0.75,0.05,52,0,0.7595,,,,,,143,0,143,0,1,,,,,
,,979450,001,2023-07-31_20h48.02.020,arm3_eps,2022.2.5,Win32,60.06366749,611d05c997db7c2653864ff4,64c7fed44a04f777bb1e18ce,64c801637be46e9a4f7b0db9,up,1,0.75,0.05,53,0,0.8542,,,,,,144,0,144,0,1,,,,,
,,979450,001,2023-07-31_20h48.02.020,arm3_eps,2022.2.5,Win32,60.06366749,611d05c997db7c2653864ff4,64c7fed44a04f777bb1e18ce,64c801637be46e9a4f7b0db9,up,1,0.75,0.05,54,0,1.3041,,,,,,145,0,145,0,1,,,,,
,,979450,001,2023-07-31_20h48.02.020,arm3_eps,2022.2.5,Win32,60.06366749,611d05c997db7c2653864ff4,64c7fed44a04f777bb1e18ce,64c801637be46e9a4f7b0db9,up,1,0.75,0.05,54,0,1.0409,,,,,,146,0,146,0,1,,,,,
,,979450,001,2023-07-31_20h48.02.020,arm3_eps,2022.2.5,Win32,60.06366749,611d05c997db7c2653864ff4,64c7fed44a04f777bb1e18ce,64c801637be46e9a4f7b0db9,up,1,0.75,0.05,55,0,0.7776,,,,,,147,0,147,0,1,,,,,
,,979450,001,2023-07-31_20h48.02.020,arm3_eps,2022.2.5,Win32,60.06366749,611d05c997db7c2653864ff4,64c7fed44a04f777bb1e18ce,64c801637be46e9a4f7b0db9,up,1,0.75,0.05,55,0,0.8421,,,,,,148,0,148,0,1,,,,,
,,979450,001,2023-07-31_20h48.02.020,arm3_eps,2022.2.5,Win32,60.06366749,611d05c997db7c2653864ff4,64c7fed44a04f777bb1e18ce,64c801637be46e9a4f7b0db9,up,1,0.75,0.05,56,0,0.8729,,,,,,149,0,149,0,1,,,,,
,,979450,001,2023-07-31_20h48.02.020,arm3_eps,2022.2.5,Win32,60.06366749,611d05c997db7c2653864ff4,64c7fed44a04f777bb1e18ce,64c801637be46e9a4f7b0db9,up,1,0.75,0.05,56,0,0.8224,,,,,,150,0,150,0,1,,,,,
,,979450,001,2023-07-31_20h48.02.020,arm3_eps,2022.2.5,Win32,60.06366749,611d05c997db7c2653864ff4,64c7fed44a04f777bb1e18ce,64c801637be46e9a4f7b0db9,up,1,0.75,0.05,57,0,0.8619,,,,,,151,0,151,0,1,,,,,
,,979450,001,2023-07-31_20h48.02.020,arm3_eps,2022.2.5,Win32,60.06366749,611d05c997db7c2653864ff4,64c7fed44a04f777bb1e18ce,64c801637be46e9a4f7b0db9,up,1,0.75,0.05,58,0,0.7815,,,,,,152,0,152,0,1,,,,,
,,979450,001,2023-07-31_20h48.02.020,arm3_eps,2022.2.5,Win32,60.06366749,611d05c997db7c2653864ff4,64c7fed44a04f777bb1e18ce,64c801637be46e9a4f7b0db9,up,1,0.75,0.05,59,0,0.8262,,,,,,153,0,153,0,1,,,,,
,,979450,001,2023-07-31_20h48.02.020,arm3_eps,2022.2.5,Win32,60.06366749,611d05c997db7c2653864ff4,64c7fed44a04f777bb1e18ce,64c801637be46e9a4f7b0db9,up,1,0.75,0.05,60,0,0.8386,,,,,,154,0,154,0,1,,,,,
,,979450,001,2023-07-31_20h48.02.020,arm3_eps,2022.2.5,Win32,60.06366749,611d05c997db7c2653864ff4,64c7fed44a04f777bb1e18ce,64c801637be46e9a4f7b0db9,up,1,0.75,0.05,60,0,0.8554,,,,,,155,0,155,0,1,,,,,
,,979450,001,2023-07-31_20h48.02.020,arm3_eps,2022.2.5,Win32,60.06366749,611d05c997db7c2653864ff4,64c7fed44a04f777bb1e18ce,64c801637be46e9a4f7b0db9,up,1,0.75,0.05,61,0,0.741,,,,,,156,0,156,0,1,,,,,
,,979450,001,2023-07-31_20h48.02.020,arm3_eps,2022.2.5,Win32,60.06366749,611d05c997db7c2653864ff4,64c7fed44a04f777bb1e18ce,64c801637be46e9a4f7b0db9,up,1,0.75,0.05,62,0,0.8237,,,,,,157,0,157,0,1,,,,,
,,979450,001,2023-07-31_20h48.02.020,arm3_eps,2022.2.5,Win32,60.06366749,611d05c997db7c2653864ff4,64c7fed44a04f777bb1e18ce,64c801637be46e9a4f7b0db9,up,-1,0.75,0.05,62,0,0.7721,,,,,,158,0,158,0,1,,,,,
,,979450,001,2023-07-31_20h48.02.020,arm3_eps,2022.2.5,Win32,60.06366749,611d05c997db7c2653864ff4,64c7fed44a04f777bb1e18ce,64c801637be46e9a4f7b0db9,up,-1,0.75,0.05,61,0,0.7745,,,,,,159,0,159,0,1,,,,,
,,979450,001,2023-07-31_20h48.02.020,arm3_eps,2022.2.5,Win32,60.06366749,611d05c997db7c2653864ff4,64c7fed44a04f777bb1e18ce,64c801637be46e9a4f7b0db9,down,-1,0.75,0.05,61,0,0.9695,,,,,,160,0,160,0,1,,,,,
,,979450,001,2023-07-31_20h48.02.020,arm3_eps,2022.2.5,Win32,60.06366749,611d05c997db7c2653864ff4,64c7fed44a04f777bb1e18ce,64c801637be46e9a4f7b0db9,down,-1,0.75,0.05,62,0,0.8636,,,,,,161,0,161,0,1,,,,,
,,979450,001,2023-07-31_20h48.02.020,arm3_eps,2022.2.5,Win32,60.06366749,611d05c997db7c2653864ff4,64c7fed44a04f777bb1e18ce,64c801637be46e9a4f7b0db9,down,-1,0.75,0.05,63,0,0.974,,,,,,162,0,162,0,1,,,,,
,,979450,001,2023-07-31_20h48.02.020,arm3_eps,2022.2.5,Win32,60.06366749,611d05c997db7c2653864ff4,64c7fed44a04f777bb1e18ce,64c801637be46e9a4f7b0db9,down,-1,0.75,0.05,63,0,0.8707,,,,,,163,0,163,0,1,,,,,
,,979450,001,2023-07-31_20h48.02.020,arm3_eps,2022.2.5,Win32,60.06366749,611d05c997db7c2653864ff4,64c7fed44a04f777bb1e18ce,64c801637be46e9a4f7b0db9,down,-1,0.75,0.05,64,0,0.8233,,,,,,164,0,164,0,1,,,,,
,,979450,001,2023-07-31_20h48.02.020,arm3_eps,2022.2.5,Win32,60.06366749,611d05c997db7c2653864ff4,64c7fed44a04f777bb1e18ce,64c801637be46e9a4f7b0db9,down,1,0.75,0.05,64,0,0.8227,,,,,,165,0,165,0,1,,,,,
,,979450,001,2023-07-31_20h48.02.020,arm3_eps,2022.2.5,Win32,60.06366749,611d05c997db7c2653864ff4,64c7fed44a04f777bb1e18ce,64c801637be46e9a4f7b0db9,down,-1,0.75,0.05,63,0,0.8071,,,,,,166,0,166,0,1,,,,,
,,979450,001,2023-07-31_20h48.02.020,arm3_eps,2022.2.5,Win32,60.06366749,611d05c997db7c2653864ff4,64c7fed44a04f777bb1e18ce,64c801637be46e9a4f7b0db9,up,-1,0.75,0.05,62,0,0.8056,,,,,,167,0,167,0,1,,,,,
,,979450,001,2023-07-31_20h48.02.020,arm3_eps,2022.2.5,Win32,60.06366749,611d05c997db7c2653864ff4,64c7fed44a04f777bb1e18ce,64c801637be46e9a4f7b0db9,up,-1,0.75,0.05,62,0,0.9733,,,,,,168,0,168,0,1,,,,,
,,979450,001,2023-07-31_20h48.02.020,arm3_eps,2022.2.5,Win32,60.06366749,611d05c997db7c2653864ff4,64c7fed44a04f777bb1e18ce,64c801637be46e9a4f7b0db9,up,-1,0.75,0.05,61,0,0.873,,,,,,169,0,169,0,1,,,,,
,,979450,001,2023-07-31_20h48.02.020,arm3_eps,2022.2.5,Win32,60.06366749,611d05c997db7c2653864ff4,64c7fed44a04f777bb1e18ce,64c801637be46e9a4f7b0db9,down,1,0.75,0.05,61,0,0.8749,,,,,,170,0,170,0,1,,,,,
,,979450,001,2023-07-31_20h48.02.020,arm3_eps,2022.2.5,Win32,60.06366749,611d05c997db7c2653864ff4,64c7fed44a04f777bb1e18ce,64c801637be46e9a4f7b0db9,up,1,0.75,0.05,62,0,1.1964,,,,,,171,0,171,0,1,,,,,
,,979450,001,2023-07-31_20h48.02.020,arm3_eps,2022.2.5,Win32,60.06366749,611d05c997db7c2653864ff4,64c7fed44a04f777bb1e18ce,64c801637be46e9a4f7b0db9,up,1,0.75,0.05,63,0,1.024,,,,,,172,0,172,0,1,,,,,
,,979450,001,2023-07-31_20h48.02.020,arm3_eps,2022.2.5,Win32,60.06366749,611d05c997db7c2653864ff4,64c7fed44a04f777bb1e18ce,64c801637be46e9a4f7b0db9,up,1,0.75,0.05,64,0,1.4464,,,,,,173,0,173,0,1,,,,,
,,979450,001,2023-07-31_20h48.02.020,arm3_eps,2022.2.5,Win32,60.06366749,611d05c997db7c2653864ff4,64c7fed44a04f777bb1e18ce,64c801637be46e9a4f7b0db9,up,1,0.75,0.05,64,0,0.8243,,,,,,174,0,174,0,1,,,,,
,,979450,001,2023-07-31_20h48.02.020,arm3_eps,2022.2.5,Win32,60.06366749,611d05c997db7c2653864ff4,64c7fed44a04f777bb1e18ce,64c801637be46e9a4f7b0db9,up,1,0.75,0.05,64,0,1.0093,,,,,,175,0,175,0,1,,,,,
,,979450,001,2023-07-31_20h48.02.020,arm3_eps,2022.2.5,Win32,60.06366749,611d05c997db7c2653864ff4,64c7fed44a04f777bb1e18ce,64c801637be46e9a4f7b0db9,up,1,0.75,0.05,65,0,0.8574,,,,,,176,0,176,0,1,,,,,
,,979450,001,2023-07-31_20h48.02.020,arm3_eps,2022.2.5,Win32,60.06366749,611d05c997db7c2653864ff4,64c7fed44a04f777bb1e18ce,64c801637be46e9a4f7b0db9,up,1,0.75,0.05,66,0,0.8242,,,,,,177,0,177,0,1,,,,,
,,979450,001,2023-07-31_20h48.02.020,arm3_eps,2022.2.5,Win32,60.06366749,611d05c997db7c2653864ff4,64c7fed44a04f777bb1e18ce,64c801637be46e9a4f7b0db9,up,1,0.75,0.05,67,0,0.7968,,,,,,178,0,178,0,1,,,,,
,,979450,001,2023-07-31_20h48.02.020,arm3_eps,2022.2.5,Win32,60.06366749,611d05c997db7c2653864ff4,64c7fed44a04f777bb1e18ce,64c801637be46e9a4f7b0db9,up,1,0.75,0.05,68,0,0.8463,,,,,,179,0,179,0,1,,,,,
,,979450,001,2023-07-31_20h48.02.020,arm3_eps,2022.2.5,Win32,60.06366749,611d05c997db7c2653864ff4,64c7fed44a04f777bb1e18ce,64c801637be46e9a4f7b0db9,up,1,0.75,0.05,69,0,0.8266,,,,,,180,0,180,0,1,,,,,
,,979450,001,2023-07-31_20h48.02.020,arm3_eps,2022.2.5,Win32,60.06366749,611d05c997db7c2653864ff4,64c7fed44a04f777bb1e18ce,64c801637be46e9a4f7b0db9,up,1,0.75,0.05,70,0,0.7803,,,,,,181,0,181,0,1,,,,,
,,979450,001,2023-07-31_20h48.02.020,arm3_eps,2022.2.5,Win32,60.06366749,611d05c997db7c2653864ff4,64c7fed44a04f777bb1e18ce,64c801637be46e9a4f7b0db9,up,1,0.75,0.05,70,0,0.8749,,,,,,182,0,182,0,1,,,,,
,,979450,001,2023-07-31_20h48.02.020,arm3_eps,2022.2.5,Win32,60.06366749,611d05c997db7c2653864ff4,64c7fed44a04f777bb1e18ce,64c801637be46e9a4f7b0db9,up,1,0.75,0.05,71,0,1.1563,,,,,,183,0,183,0,1,,,,,
,,979450,001,2023-07-31_20h48.02.020,arm3_eps,2022.2.5,Win32,60.06366749,611d05c997db7c2653864ff4,64c7fed44a04f777bb1e18ce,64c801637be46e9a4f7b0db9,up,-1,0.75,0.05,72,0,0.7304,,,,,,184,0,184,0,1,,,,,
,,979450,001,2023-07-31_20h48.02.020,arm3_eps,2022.2.5,Win32,60.06366749,611d05c997db7c2653864ff4,64c7fed44a04f777bb1e18ce,64c801637be46e9a4f7b0db9,up,-1,0.75,0.05,72,0,0.7804,,,,,,185,0,185,0,1,,,,,
,,979450,001,2023-07-31_20h48.02.020,arm3_eps,2022.2.5,Win32,60.06366749,611d05c997db7c2653864ff4,64c7fed44a04f777bb1e18ce,64c801637be46e9a4f7b0db9,up,-1,0.75,0.05,71,0,0.747,,,,,,186,0,186,0,1,,,,,
,,979450,001,2023-07-31_20h48.02.020,arm3_eps,2022.2.5,Win32,60.06366749,611d05c997db7c2653864ff4,64c7fed44a04f777bb1e18ce,64c801637be46e9a4f7b0db9,down,-1,0.75,0.05,71,0,0.8899,,,,,,187,0,187,0,1,,,,,
,,979450,001,2023-07-31_20h48.02.020,arm3_eps,2022.2.5,Win32,60.06366749,611d05c997db7c2653864ff4,64c7fed44a04f777bb1e18ce,64c801637be46e9a4f7b0db9,down,1,0.75,0.05,72,0,0.8064,,,,,,188,0,188,0,1,,,,,
,,979450,001,2023-07-31_20h48.02.020,arm3_eps,2022.2.5,Win32,60.06366749,611d05c997db7c2653864ff4,64c7fed44a04f777bb1e18ce,64c801637be46e9a4f7b0db9,down,1,0.75,0.05,71,0,0.8788,,,,,,189,0,189,0,1,,,,,
,,979450,001,2023-07-31_20h48.02.020,arm3_eps,2022.2.5,Win32,60.06366749,611d05c997db7c2653864ff4,64c7fed44a04f777bb1e18ce,64c801637be46e9a4f7b0db9,up,1,0.75,0.05,72,0,0.9595,,,,,,190,0,190,0,1,,,,,
,,979450,001,2023-07-31_20h48.02.020,arm3_eps,2022.2.5,Win32,60.06366749,611d05c997db7c2653864ff4,64c7fed44a04f777bb1e18ce,64c801637be46e9a4f7b0db9,up,1,0.75,0.05,73,0,0.7731,,,,,,191,0,191,0,1,,,,,
,,979450,001,2023-07-31_20h48.02.020,arm3_eps,2022.2.5,Win32,60.06366749,611d05c997db7c2653864ff4,64c7fed44a04f777bb1e18ce,64c801637be46e9a4f7b0db9,up,1,0.75,0.05,74,0,0.8082,,,,,,192,0,192,0,1,,,,,
,,979450,001,2023-07-31_20h48.02.020,arm3_eps,2022.2.5,Win32,60.06366749,611d05c997db7c2653864ff4,64c7fed44a04f777bb1e18ce,64c801637be46e9a4f7b0db9,up,1,0.75,0.05,75,0,0.7884,,,,,,193,0,193,0,1,,,,,
,,979450,001,2023-07-31_20h48.02.020,arm3_eps,2022.2.5,Win32,60.06366749,611d05c997db7c2653864ff4,64c7fed44a04f777bb1e18ce,64c801637be46e9a4f7b0db9,up,1,0.75,0.05,75,0,0.8077,,,,,,194,0,194,0,1,,,,,
,,979450,001,2023-07-31_20h48.02.020,arm3_eps,2022.2.5,Win32,60.06366749,611d05c997db7c2653864ff4,64c7fed44a04f777bb1e18ce,64c801637be46e9a4f7b0db9,up,1,0.75,0.05,76,0,0.823,,,,,,195,0,195,0,1,,,,,
,,979450,001,2023-07-31_20h48.02.020,arm3_eps,2022.2.5,Win32,60.06366749,611d05c997db7c2653864ff4,64c7fed44a04f777bb1e18ce,64c801637be46e9a4f7b0db9,up,1,0.75,0.05,77,0,0.773,,,,,,196,0,196,0,1,,,,,
,,979450,001,2023-07-31_20h48.02.020,arm3_eps,2022.2.5,Win32,60.06366749,611d05c997db7c2653864ff4,64c7fed44a04f777bb1e18ce,64c801637be46e9a4f7b0db9,up,1,0.75,0.05,77,0,0.7733,,,,,,197,0,197,0,1,,,,,
,,979450,001,2023-07-31_20h48.02.020,arm3_eps,2022.2.5,Win32,60.06366749,611d05c997db7c2653864ff4,64c7fed44a04f777bb1e18ce,64c801637be46e9a4f7b0db9,up,1,0.75,0.05,78,0,0.7734,,,,,,198,0,198,0,1,,,,,
,,979450,001,2023-07-31_20h48.02.020,arm3_eps,2022.2.5,Win32,60.06366749,611d05c997db7c2653864ff4,64c7fed44a04f777bb1e18ce,64c801637be46e9a4f7b0db9,up,1,0.75,0.05,79,0,0.7813,,,,,,199,0,199,0,1,,,,,
,,979450,001,2023-07-31_20h48.02.020,arm3_eps,2022.2.5,Win32,60.06366749,611d05c997db7c2653864ff4,64c7fed44a04f777bb1e18ce,64c801637be46e9a4f7b0db9,up,1,0.75,0.05,80,0,0.7886,,,,,,200,0,200,0,1,,,,,
,,979450,001,2023-07-31_20h48.02.020,arm3_eps,2022.2.5,Win32,60.06366749,611d05c997db7c2653864ff4,64c7fed44a04f777bb1e18ce,64c801637be46e9a4f7b0db9,up,-1,0.75,0.05,81,0,0.7566,,,,,,201,0,201,0,1,,,,,
,,979450,001,2023-07-31_20h48.02.020,arm3_eps,2022.2.5,Win32,60.06366749,611d05c997db7c2653864ff4,64c7fed44a04f777bb1e18ce,64c801637be46e9a4f7b0db9,up,-1,0.75,0.05,80,0,0.7908,,,,,,202,0,202,0,1,,,,,
,,979450,001,2023-07-31_20h48.02.020,arm3_eps,2022.2.5,Win32,60.06366749,611d05c997db7c2653864ff4,64c7fed44a04f777bb1e18ce,64c801637be46e9a4f7b0db9,down,-1,0.75,0.05,81,0,0.823,,,,,,203,0,203,0,1,,,,,
,,979450,001,2023-07-31_20h48.02.020,arm3_eps,2022.2.5,Win32,60.06366749,611d05c997db7c2653864ff4,64c7fed44a04f777bb1e18ce,64c801637be46e9a4f7b0db9,up,-1,0.75,0.05,80,0,0.6741,,,,,,204,0,204,0,1,,,,,
,,979450,001,2023-07-31_20h48.02.020,arm3_eps,2022.2.5,Win32,60.06366749,611d05c997db7c2653864ff4,64c7fed44a04f777bb1e18ce,64c801637be46e9a4f7b0db9,down,-1,0.75,0.05,80,0,0.7372,,,,,,205,0,205,0,1,,,,,
,,979450,001,2023-07-31_20h48.02.020,arm3_eps,2022.2.5,Win32,60.06366749,611d05c997db7c2653864ff4,64c7fed44a04f777bb1e18ce,64c801637be46e9a4f7b0db9,down,-1,0.75,0.05,81,0,0.8083,,,,,,206,0,206,0,1,,,,,
,,979450,001,2023-07-31_20h48.02.020,arm3_eps,2022.2.5,Win32,60.06366749,611d05c997db7c2653864ff4,64c7fed44a04f777bb1e18ce,64c801637be46e9a4f7b0db9,down,1,0.75,0.05,82,0,0.8575,,,,,,207,0,207,0,1,,,,,
,,979450,001,2023-07-31_20h48.02.020,arm3_eps,2022.2.5,Win32,60.06366749,611d05c997db7c2653864ff4,64c7fed44a04f777bb1e18ce,64c801637be46e9a4f7b0db9,down,1,0.75,0.05,81,0,0.9052,,,,,,208,0,208,0,1,,,,,
,,979450,001,2023-07-31_20h48.02.020,arm3_eps,2022.2.5,Win32,60.06366749,611d05c997db7c2653864ff4,64c7fed44a04f777bb1e18ce,64c801637be46e9a4f7b0db9,up,1,0.75,0.05,81,0,0.8246,,,,,,209,0,209,0,1,,,,,
,,979450,001,2023-07-31_20h48.02.020,arm3_eps,2022.2.5,Win32,60.06366749,611d05c997db7c2653864ff4,64c7fed44a04f777bb1e18ce,64c801637be46e9a4f7b0db9,up,1,0.75,0.05,82,0,0.7964,,,,,,210,0,210,0,1,,,,,
,,979450,001,2023-07-31_20h48.02.020,arm3_eps,2022.2.5,Win32,60.06366749,611d05c997db7c2653864ff4,64c7fed44a04f777bb1e18ce,64c801637be46e9a4f7b0db9,up,1,0.75,0.05,83,0,0.8711,,,,,,211,0,211,0,1,,,,,
,,979450,001,2023-07-31_20h48.02.020,arm3_eps,2022.2.5,Win32,60.06366749,611d05c997db7c2653864ff4,64c7fed44a04f777bb1e18ce,64c801637be46e9a4f7b0db9,up,1,0.75,0.05,84,0,1.4402,,,,,,212,0,212,0,1,,,,,
,,979450,001,2023-07-31_20h48.02.020,arm3_eps,2022.2.5,Win32,60.06366749,611d05c997db7c2653864ff4,64c7fed44a04f777bb1e18ce,64c801637be46e9a4f7b0db9,up,1,0.75,0.05,85,0,0.8781,,,,,,213,0,213,0,1,,,,,
,,979450,001,2023-07-31_20h48.02.020,arm3_eps,2022.2.5,Win32,60.06366749,611d05c997db7c2653864ff4,64c7fed44a04f777bb1e18ce,64c801637be46e9a4f7b0db9,up,1,0.75,0.05,86,0,0.7128,,,,,,214,0,214,0,1,,,,,
,,979450,001,2023-07-31_20h48.02.020,arm3_eps,2022.2.5,Win32,60.06366749,611d05c997db7c2653864ff4,64c7fed44a04f777bb1e18ce,64c801637be46e9a4f7b0db9,up,1,0.75,0.05,86,0,0.7204,,,,,,215,0,215,0,1,,,,,
,,979450,001,2023-07-31_20h48.02.020,arm3_eps,2022.2.5,Win32,60.06366749,611d05c997db7c2653864ff4,64c7fed44a04f777bb1e18ce,64c801637be46e9a4f7b0db9,up,1,0.75,0.05,87,0,0.7452,,,,,,216,0,216,0,1,,,,,
,,979450,001,2023-07-31_20h48.02.020,arm3_eps,2022.2.5,Win32,60.06366749,611d05c997db7c2653864ff4,64c7fed44a04f777bb1e18ce,64c801637be46e9a4f7b0db9,up,1,0.75,0.05,88,0,0.7594,,,,,,217,0,217,0,1,,,,,
,,979450,001,2023-07-31_20h48.02.020,arm3_eps,2022.2.5,Win32,60.06366749,611d05c997db7c2653864ff4,64c7fed44a04f777bb1e18ce,64c801637be46e9a4f7b0db9,up,1,0.75,0.05,89,0,0.708,,,,,,218,0,218,0,1,,,,,
,,979450,001,2023-07-31_20h48.02.020,arm3_eps,2022.2.5,Win32,60.06366749,611d05c997db7c2653864ff4,64c7fed44a04f777bb1e18ce,64c801637be46e9a4f7b0db9,up,1,0.75,0.05,90,0,0.707,,,,,,219,0,219,0,1,,,,,
,,979450,001,2023-07-31_20h48.02.020,arm3_eps,2022.2.5,Win32,60.06366749,611d05c997db7c2653864ff4,64c7fed44a04f777bb1e18ce,64c801637be46e9a4f7b0db9,up,1,0.75,0.05,90,0,0.759,,,,,,220,0,220,0,1,,,,,
,,979450,001,2023-07-31_20h48.02.020,arm3_eps,2022.2.5,Win32,60.06366749,611d05c997db7c2653864ff4,64c7fed44a04f777bb1e18ce,64c801637be46e9a4f7b0db9,up,1,0.75,0.05,91,0,0.7409,,,,,,221,0,221,0,1,,,,,
,,979450,001,2023-07-31_20h48.02.020,arm3_eps,2022.2.5,Win32,60.06366749,611d05c997db7c2653864ff4,64c7fed44a04f777bb1e18ce,64c801637be46e9a4f7b0db9,up,1,0.75,0.05,92,0,0.7024,,,,,,222,0,222,0,1,,,,,
,,979450,001,2023-07-31_20h48.02.020,arm3_eps,2022.2.5,Win32,60.06366749,611d05c997db7c2653864ff4,64c7fed44a04f777bb1e18ce,64c801637be46e9a4f7b0db9,up,1,0.75,0.05,93,0,0.6552,,,,,,223,0,223,0,1,,,,,
,,979450,001,2023-07-31_20h48.02.020,arm3_eps,2022.2.5,Win32,60.06366749,611d05c997db7c2653864ff4,64c7fed44a04f777bb1e18ce,64c801637be46e9a4f7b0db9,up,1,0.75,0.05,94,0,0.8411,,,,,,224,0,224,0,1,,,,,
,,979450,001,2023-07-31_20h48.02.020,arm3_eps,2022.2.5,Win32,60.06366749,611d05c997db7c2653864ff4,64c7fed44a04f777bb1e18ce,64c801637be46e9a4f7b0db9,up,1,0.75,0.05,95,0,0.7272,,,,,,225,0,225,0,1,,,,,
,,979450,001,2023-07-31_20h48.02.020,arm3_eps,2022.2.5,Win32,60.06366749,611d05c997db7c2653864ff4,64c7fed44a04f777bb1e18ce,64c801637be46e9a4f7b0db9,up,1,0.75,0.05,96,0,0.7402,,,,,,226,0,226,0,1,,,,,
,,979450,001,2023-07-31_20h48.02.020,arm3_eps,2022.2.5,Win32,60.06366749,611d05c997db7c2653864ff4,64c7fed44a04f777bb1e18ce,64c801637be46e9a4f7b0db9,up,1,0.75,0.05,96,0,0.7747,,,,,,227,0,227,0,1,,,,,
,,979450,001,2023-07-31_20h48.02.020,arm3_eps,2022.2.5,Win32,60.06366749,611d05c997db7c2653864ff4,64c7fed44a04f777bb1e18ce,64c801637be46e9a4f7b0db9,up,1,0.75,0.05,97,0,0.7923,,,,,,228,0,228,0,1,,,,,
,,979450,001,2023-07-31_20h48.02.020,arm3_eps,2022.2.5,Win32,60.06366749,611d05c997db7c2653864ff4,64c7fed44a04f777bb1e18ce,64c801637be46e9a4f7b0db9,up,1,0.75,0.05,98,0,2.6305,,,,,,229,0,229,0,1,,,,,
,,979450,001,2023-07-31_20h48.02.020,arm3_eps,2022.2.5,Win32,60.06366749,611d05c997db7c2653864ff4,64c7fed44a04f777bb1e18ce,64c801637be46e9a4f7b0db9,up,1,0.75,0.05,99,0,0.8068,,,,,,230,0,230,0,1,,,,,
,,979450,001,2023-07-31_20h48.02.020,arm3_eps,2022.2.5,Win32,60.06366749,611d05c997db7c2653864ff4,64c7fed44a04f777bb1e18ce,64c801637be46e9a4f7b0db9,up,1,0.75,0.05,100,0,0.6959,,,,,,231,0,231,0,1,,,,,
,,979450,001,2023-07-31_20h48.02.020,arm3_eps,2022.2.5,Win32,60.06366749,611d05c997db7c2653864ff4,64c7fed44a04f777bb1e18ce,64c801637be46e9a4f7b0db9,up,1,0.75,0.05,100,0,0.8308,,,,,,232,0,232,0,1,,,,,
,,979450,001,2023-07-31_20h48.02.020,arm3_eps,2022.2.5,Win32,60.06366749,611d05c997db7c2653864ff4,64c7fed44a04f777bb1e18ce,64c801637be46e9a4f7b0db9,up,1,0.75,0.05,101,0,0.7594,,,,,,233,0,233,0,1,,,,,
,,979450,001,2023-07-31_20h48.02.020,arm3_eps,2022.2.5,Win32,60.06366749,611d05c997db7c2653864ff4,64c7fed44a04f777bb1e18ce,64c801637be46e9a4f7b0db9,up,1,0.75,0.05,101,0,0.7233,,,,,,234,0,234,0,1,,,,,
,,979450,001,2023-07-31_20h48.02.020,arm3_eps,2022.2.5,Win32,60.06366749,611d05c997db7c2653864ff4,64c7fed44a04f777bb1e18ce,64c801637be46e9a4f7b0db9,up,1,0.75,0.05,102,0,0.7396,,,,,,235,0,235,0,1,,,,,
,,979450,001,2023-07-31_20h48.02.020,arm3_eps,2022.2.5,Win32,60.06366749,611d05c997db7c2653864ff4,64c7fed44a04f777bb1e18ce,64c801637be46e9a4f7b0db9,up,1,0.75,0.05,103,0,0.7198,,,,,,236,0,236,0,1,,,,,
,,979450,001,2023-07-31_20h48.02.020,arm3_eps,2022.2.5,Win32,60.06366749,611d05c997db7c2653864ff4,64c7fed44a04f777bb1e18ce,64c801637be46e9a4f7b0db9,up,1,0.75,0.05,103,0,0.6897,,,,,,237,0,237,0,1,,,,,
,,979450,001,2023-07-31_20h48.02.020,arm3_eps,2022.2.5,Win32,60.06366749,611d05c997db7c2653864ff4,64c7fed44a04f777bb1e18ce,64c801637be46e9a4f7b0db9,up,1,0.75,0.05,103,0,0.7407,,,,,,238,0,238,0,1,,,,,
,,979450,001,2023-07-31_20h48.02.020,arm3_eps,2022.2.5,Win32,60.06366749,611d05c997db7c2653864ff4,64c7fed44a04f777bb1e18ce,64c801637be46e9a4f7b0db9,up,-1,0.75,0.05,104,0,0.7458,,,,,,239,0,239,0,1,,,,,
,,979450,001,2023-07-31_20h48.02.020,arm3_eps,2022.2.5,Win32,60.06366749,611d05c997db7c2653864ff4,64c7fed44a04f777bb1e18ce,64c801637be46e9a4f7b0db9,up,-1,0.75,0.05,103,0,0.707,,,,,,240,0,240,0,1,,,,,
,,979450,001,2023-07-31_20h48.02.020,arm3_eps,2022.2.5,Win32,60.06366749,611d05c997db7c2653864ff4,64c7fed44a04f777bb1e18ce,64c801637be46e9a4f7b0db9,down,-1,0.75,0.05,104,0,0.8299,,,,,,241,0,241,0,1,,,,,
,,979450,001,2023-07-31_20h48.02.020,arm3_eps,2022.2.5,Win32,60.06366749,611d05c997db7c2653864ff4,64c7fed44a04f777bb1e18ce,64c801637be46e9a4f7b0db9,up,-1,0.75,0.05,103,0,0.842,,,,,,242,0,242,0,1,,,,,
,,979450,001,2023-07-31_20h48.02.020,arm3_eps,2022.2.5,Win32,60.06366749,611d05c997db7c2653864ff4,64c7fed44a04f777bb1e18ce,64c801637be46e9a4f7b0db9,down,-1,0.75,0.05,104,0,0.7569,,,,,,243,0,243,0,1,,,,,
,,979450,001,2023-07-31_20h48.02.020,arm3_eps,2022.2.5,Win32,60.06366749,611d05c997db7c2653864ff4,64c7fed44a04f777bb1e18ce,64c801637be46e9a4f7b0db9,up,1,0.75,0.05,103,0,0.9601,,,,,,244,0,244,0,1,,,,,
,,979450,001,2023-07-31_20h48.02.020,arm3_eps,2022.2.5,Win32,60.06366749,611d05c997db7c2653864ff4,64c7fed44a04f777bb1e18ce,64c801637be46e9a4f7b0db9,down,1,0.75,0.05,103,0,0.6557,,,,,,245,0,245,0,1,,,,,
,,979450,001,2023-07-31_20h48.02.020,arm3_eps,2022.2.5,Win32,60.06366749,611d05c997db7c2653864ff4,64c7fed44a04f777bb1e18ce,64c801637be46e9a4f7b0db9,down,1,0.75,0.05,102,0,0.8574,,,,,,246,0,246,0,1,,,,,
,,979450,001,2023-07-31_20h48.02.020,arm3_eps,2022.2.5,Win32,60.06366749,611d05c997db7c2653864ff4,64c7fed44a04f777bb1e18ce,64c801637be46e9a4f7b0db9,up,1,0.75,0.05,103,0,0.79,,,,,,247,0,247,0,1,,,,,
,,979450,001,2023-07-31_20h48.02.020,arm3_eps,2022.2.5,Win32,60.06366749,611d05c997db7c2653864ff4,64c7fed44a04f777bb1e18ce,64c801637be46e9a4f7b0db9,up,1,0.75,0.05,104,0,0.7404,,,,,,248,0,248,0,1,,,,,
,,979450,001,2023-07-31_20h48.02.020,arm3_eps,2022.2.5,Win32,60.06366749,611d05c997db7c2653864ff4,64c7fed44a04f777bb1e18ce,64c801637be46e9a4f7b0db9,up,1,0.75,0.05,104,0,0.7689,,,,,,249,0,249,0,1,,,,,
,,979450,001,2023-07-31_20h48.02.020,arm3_eps,2022.2.5,Win32,60.06366749,611d05c997db7c2653864ff4,64c7fed44a04f777bb1e18ce,64c801637be46e9a4f7b0db9,up,1,0.75,0.05,105,0,0.74,,,,,,250,0,250,0,1,,,,,
,,979450,001,2023-07-31_20h48.02.020,arm3_eps,2022.2.5,Win32,60.06366749,611d05c997db7c2653864ff4,64c7fed44a04f777bb1e18ce,64c801637be46e9a4f7b0db9,up,1,0.75,0.05,106,0,0.7961,,,,,,251,0,251,0,1,,,,,
,,979450,001,2023-07-31_20h48.02.020,arm3_eps,2022.2.5,Win32,60.06366749,611d05c997db7c2653864ff4,64c7fed44a04f777bb1e18ce,64c801637be46e9a4f7b0db9,up,1,0.75,0.05,106,0,0.7617,,,,,,252,0,252,0,1,,,,,
,,979450,001,2023-07-31_20h48.02.020,arm3_eps,2022.2.5,Win32,60.06366749,611d05c997db7c2653864ff4,64c7fed44a04f777bb1e18ce,64c801637be46e9a4f7b0db9,up,1,0.75,0.05,107,0,0.8481,,,,,,253,0,253,0,1,,,,,
,,979450,001,2023-07-31_20h48.02.020,arm3_eps,2022.2.5,Win32,60.06366749,611d05c997db7c2653864ff4,64c7fed44a04f777bb1e18ce,64c801637be46e9a4f7b0db9,up,1,0.75,0.05,107,0,0.8044,,,,,,254,0,254,0,1,,,,,
,,979450,001,2023-07-31_20h48.02.020,arm3_eps,2022.2.5,Win32,60.06366749,611d05c997db7c2653864ff4,64c7fed44a04f777bb1e18ce,64c801637be46e9a4f7b0db9,up,1,0.75,0.05,107,0,0.772,,,,,,255,0,255,0,1,,,,,
,,979450,001,2023-07-31_20h48.02.020,arm3_eps,2022.2.5,Win32,60.06366749,611d05c997db7c2653864ff4,64c7fed44a04f777bb1e18ce,64c801637be46e9a4f7b0db9,up,1,0.75,0.05,108,0,0.7087,,,,,,256,0,256,0,1,,,,,
,,979450,001,2023-07-31_20h48.02.020,arm3_eps,2022.2.5,Win32,60.06366749,611d05c997db7c2653864ff4,64c7fed44a04f777bb1e18ce,64c801637be46e9a4f7b0db9,up,1,0.75,0.05,109,0,0.7805,,,,,,257,0,257,0,1,,,,,
,,979450,001,2023-07-31_20h48.02.020,arm3_eps,2022.2.5,Win32,60.06366749,611d05c997db7c2653864ff4,64c7fed44a04f777bb1e18ce,64c801637be46e9a4f7b0db9,up,1,0.75,0.05,109,0,0.8089,,,,,,258,0,258,0,1,,,,,
,,979450,001,2023-07-31_20h48.02.020,arm3_eps,2022.2.5,Win32,60.06366749,611d05c997db7c2653864ff4,64c7fed44a04f777bb1e18ce,64c801637be46e9a4f7b0db9,up,-1,0.75,0.05,110,0,0.6981,,,,,,259,0,259,0,1,,,,,
,,979450,001,2023-07-31_20h48.02.020,arm3_eps,2022.2.5,Win32,60.06366749,611d05c997db7c2653864ff4,64c7fed44a04f777bb1e18ce,64c801637be46e9a4f7b0db9,up,1,0.75,0.05,110,0,0.7915,,,,,,260,0,260,0,1,,,,,
,,979450,001,2023-07-31_20h48.02.020,arm3_eps,2022.2.5,Win32,60.06366749,611d05c997db7c2653864ff4,64c7fed44a04f777bb1e18ce,64c801637be46e9a4f7b0db9,up,1,0.75,0.05,110,0,0.6755,,,,,,261,0,261,0,1,,,,,
,,979450,001,2023-07-31_20h48.02.020,arm3_eps,2022.2.5,Win32,60.06366749,611d05c997db7c2653864ff4,64c7fed44a04f777bb1e18ce,64c801637be46e9a4f7b0db9,up,1,0.75,0.05,111,0,0.7802,,,,,,262,0,262,0,1,,,,,
,,979450,001,2023-07-31_20h48.02.020,arm3_eps,2022.2.5,Win32,60.06366749,611d05c997db7c2653864ff4,64c7fed44a04f777bb1e18ce,64c801637be46e9a4f7b0db9,up,1,0.75,0.05,112,0,0.6623,,,,,,263,0,263,0,1,,,,,
,,979450,001,2023-07-31_20h48.02.020,arm3_eps,2022.2.5,Win32,60.06366749,611d05c997db7c2653864ff4,64c7fed44a04f777bb1e18ce,64c801637be46e9a4f7b0db9,up,1,0.75,0.05,113,0,0.8082,,,,,,264,0,264,0,1,,,,,
,,979450,001,2023-07-31_20h48.02.020,arm3_eps,2022.2.5,Win32,60.06366749,611d05c997db7c2653864ff4,64c7fed44a04f777bb1e18ce,64c801637be46e9a4f7b0db9,up,1,0.75,0.05,113,0,1.7218,,,,,,265,0,265,0,1,,,,,
,,979450,001,2023-07-31_20h48.02.020,arm3_eps,2022.2.5,Win32,60.06366749,611d05c997db7c2653864ff4,64c7fed44a04f777bb1e18ce,64c801637be46e9a4f7b0db9,up,1,0.75,0.05,113,0,0.7918,,,,,,266,0,266,0,1,,,,,
,,979450,001,2023-07-31_20h48.02.020,arm3_eps,2022.2.5,Win32,60.06366749,611d05c997db7c2653864ff4,64c7fed44a04f777bb1e18ce,64c801637be46e9a4f7b0db9,up,1,0.75,0.05,113,0,0.7065,,,,,,267,0,267,0,1,,,,,
,,979450,001,2023-07-31_20h48.02.020,arm3_eps,2022.2.5,Win32,60.06366749,611d05c997db7c2653864ff4,64c7fed44a04f777bb1e18ce,64c801637be46e9a4f7b0db9,up,1,0.75,0.05,114,0,0.8253,,,,,,268,0,268,0,1,,,,,
,,979450,001,2023-07-31_20h48.02.020,arm3_eps,2022.2.5,Win32,60.06366749,611d05c997db7c2653864ff4,64c7fed44a04f777bb1e18ce,64c801637be46e9a4f7b0db9,up,1,0.75,0.05,115,0,0.6921,,,,,,269,0,269,0,1,,,,,
,,979450,001,2023-07-31_20h48.02.020,arm3_eps,2022.2.5,Win32,60.06366749,611d05c997db7c2653864ff4,64c7fed44a04f777bb1e18ce,64c801637be46e9a4f7b0db9,up,1,0.75,0.05,116,0,1.0089,,,,,,270,0,270,0,1,,,,,
,,979450,001,2023-07-31_20h48.02.020,arm3_eps,2022.2.5,Win32,60.06366749,611d05c997db7c2653864ff4,64c7fed44a04f777bb1e18ce,64c801637be46e9a4f7b0db9,up,1,0.75,0.05,116,0,0.6959,,,,,,271,0,271,0,1,,,,,
,,979450,001,2023-07-31_20h48.02.020,arm3_eps,2022.2.5,Win32,60.06366749,611d05c997db7c2653864ff4,64c7fed44a04f777bb1e18ce,64c801637be46e9a4f7b0db9,up,1,0.75,0.05,117,0,0.7241,,,,,,272,0,272,0,1,,,,,
,,979450,001,2023-07-31_20h48.02.020,arm3_eps,2022.2.5,Win32,60.06366749,611d05c997db7c2653864ff4,64c7fed44a04f777bb1e18ce,64c801637be46e9a4f7b0db9,up,1,0.75,0.05,118,0,0.7911,,,,,,273,0,273,0,1,,,,,
,,979450,001,2023-07-31_20h48.02.020,arm3_eps,2022.2.5,Win32,60.06366749,611d05c997db7c2653864ff4,64c7fed44a04f777bb1e18ce,64c801637be46e9a4f7b0db9,up,1,0.75,0.05,118,0,0.7719,,,,,,274,0,274,0,1,,,,,
,,979450,001,2023-07-31_20h48.02.020,arm3_eps,2022.2.5,Win32,60.06366749,611d05c997db7c2653864ff4,64c7fed44a04f777bb1e18ce,64c801637be46e9a4f7b0db9,up,1,0.75,0.05,119,0,0.8072,,,,,,275,0,275,0,1,,,,,
,,979450,001,2023-07-31_20h48.02.020,arm3_eps,2022.2.5,Win32,60.06366749,611d05c997db7c2653864ff4,64c7fed44a04f777bb1e18ce,64c801637be46e9a4f7b0db9,down,1,0.75,0.05,118,0,0.8961,,,,,,276,0,276,0,1,,,,,
,,979450,001,2023-07-31_20h48.02.020,arm3_eps,2022.2.5,Win32,60.06366749,611d05c997db7c2653864ff4,64c7fed44a04f777bb1e18ce,64c801637be46e9a4f7b0db9,up,1,0.75,0.05,119,0,0.6755,,,,,,277,0,277,0,1,,,,,
,,979450,001,2023-07-31_20h48.02.020,arm3_eps,2022.2.5,Win32,60.06366749,611d05c997db7c2653864ff4,64c7fed44a04f777bb1e18ce,64c801637be46e9a4f7b0db9,up,1,0.75,0.05,120,0,1.1905,,,,,,278,0,278,0,1,,,,,
,,979450,001,2023-07-31_20h48.02.020,arm3_eps,2022.2.5,Win32,60.06366749,611d05c997db7c2653864ff4,64c7fed44a04f777bb1e18ce,64c801637be46e9a4f7b0db9,down,1,0.75,0.05,119,0,1.291,,,,,,279,0,279,0,1,,,,,
,,979450,001,2023-07-31_20h48.02.020,arm3_eps,2022.2.5,Win32,60.06366749,611d05c997db7c2653864ff4,64c7fed44a04f777bb1e18ce,64c801637be46e9a4f7b0db9,up,1,0.75,0.05,119,0,0.6566,,,,,,280,0,280,0,1,,,,,
,,979450,001,2023-07-31_20h48.02.020,arm3_eps,2022.2.5,Win32,60.06366749,611d05c997db7c2653864ff4,64c7fed44a04f777bb1e18ce,64c801637be46e9a4f7b0db9,up,1,0.75,0.05,119,0,0.8092,,,,,,281,0,281,0,1,,,,,
