space_bar.keys,space_bar.rt,participant,session,date,expName,psychopyVersion,OS,frameRate,PROLIFIC_PID,STUDY_ID,SESSION_ID,resp.keys,state,q_prob,eps_prob,score,price,resp.rt,train.thisRepN,train.thisTrialN,train.thisN,train.thisIndex,train.ran,steps.thisRepN,steps.thisTrialN,steps.thisN,steps.thisIndex,steps.ran,blocks.thisRepN,blocks.thisTrialN,blocks.thisN,blocks.thisIndex,blocks.ran
space,19.293,984820,001,2023-07-31_20h45.07.485,arm3_eps,2022.2.5,MacIntel,59.59475566,5eda9e891e6ee06df48c4b57,64c7fed44a04f777bb1e18ce,64c8012108c3a5ffeacf73f0,,,,,,,,,,,,,,,,,,,,,,
space,5.202,984820,001,2023-07-31_20h45.07.485,arm3_eps,2022.2.5,MacIntel,59.59475566,5eda9e891e6ee06df48c4b57,64c7fed44a04f777bb1e18ce,64c8012108c3a5ffeacf73f0,,,,,,,,,,,,,,,,,,,,,,
space,24.305,984820,001,2023-07-31_20h45.07.485,arm3_eps,2022.2.5,MacIntel,59.59475566,5eda9e891e6ee06df48c4b57,64c7fed44a04f777bb1e18ce,64c8012108c3a5ffeacf73f0,,,,,,,,,,,,,,,,,,,,,,
space,18.304,984820,001,2023-07-31_20h45.07.485,arm3_eps,2022.2.5,MacIntel,59.59475566,5eda9e891e6ee06df48c4b57,64c7fed44a04f777bb1e18ce,64c8012108c3a5ffeacf73f0,,,,,,,,,,,,,,,,,,,,,,
space,19.934,984820,001,2023-07-31_20h45.07.485,arm3_eps,2022.2.5,MacIntel,59.59475566,5eda9e891e6ee06df48c4b57,64c7fed44a04f777bb1e18ce,64c8012108c3a5ffeacf73f0,,,,,,,,,,,,,,,,,,,,,,
space,16.002,984820,001,2023-07-31_20h45.07.485,arm3_eps,2022.2.5,MacIntel,59.59475566,5eda9e891e6ee06df48c4b57,64c7fed44a04f777bb1e18ce,64c8012108c3a5ffeacf73f0,,,,,,,,,,,,,,,,,,,,,,
space,2.156,984820,001,2023-07-31_20h45.07.485,arm3_eps,2022.2.5,MacIntel,59.59475566,5eda9e891e6ee06df48c4b57,64c7fed44a04f777bb1e18ce,64c8012108c3a5ffeacf73f0,,,,,,,,,,,,,,,,,,,,,,
,,984820,001,2023-07-31_20h45.07.485,arm3_eps,2022.2.5,MacIntel,59.59475566,5eda9e891e6ee06df48c4b57,64c7fed44a04f777bb1e18ce,64c8012108c3a5ffeacf73f0,right,-1,1,0.2429,0,-0.004479787,12.419,0,0,0,0,1,,,,,,,,,,
,,984820,001,2023-07-31_20h45.07.485,arm3_eps,2022.2.5,MacIntel,59.59475566,5eda9e891e6ee06df48c4b57,64c7fed44a04f777bb1e18ce,64c8012108c3a5ffeacf73f0,right,-1,1,0.2429,0,-0.024354222,16.466,1,0,1,0,1,,,,,,,,,,
,,984820,001,2023-07-31_20h45.07.485,arm3_eps,2022.2.5,MacIntel,59.59475566,5eda9e891e6ee06df48c4b57,64c7fed44a04f777bb1e18ce,64c8012108c3a5ffeacf73f0,right,-1,1,0.2429,0,-0.026384917,1.787,2,0,2,0,1,,,,,,,,,,
,,984820,001,2023-07-31_20h45.07.485,arm3_eps,2022.2.5,MacIntel,59.59475566,5eda9e891e6ee06df48c4b57,64c7fed44a04f777bb1e18ce,64c8012108c3a5ffeacf73f0,right,-1,1,0.2429,0,-0.059029767,2.559,3,0,3,0,1,,,,,,,,,,
,,984820,001,2023-07-31_20h45.07.485,arm3_eps,2022.2.5,MacIntel,59.59475566,5eda9e891e6ee06df48c4b57,64c7fed44a04f777bb1e18ce,64c8012108c3a5ffeacf73f0,right,-1,1,0.2429,0,-0.046664184,0.805,4,0,4,0,1,,,,,,,,,,
,,984820,001,2023-07-31_20h45.07.485,arm3_eps,2022.2.5,MacIntel,59.59475566,5eda9e891e6ee06df48c4b57,64c7fed44a04f777bb1e18ce,64c8012108c3a5ffeacf73f0,right,-1,1,0.2429,0,-0.049736793,0.556,5,0,5,0,1,,,,,,,,,,
,,984820,001,2023-07-31_20h45.07.485,arm3_eps,2022.2.5,MacIntel,59.59475566,5eda9e891e6ee06df48c4b57,64c7fed44a04f777bb1e18ce,64c8012108c3a5ffeacf73f0,right,-1,1,0.2429,0,-0.059705565,0.555,6,0,6,0,1,,,,,,,,,,
,,984820,001,2023-07-31_20h45.07.485,arm3_eps,2022.2.5,MacIntel,59.59475566,5eda9e891e6ee06df48c4b57,64c7fed44a04f777bb1e18ce,64c8012108c3a5ffeacf73f0,right,-1,1,0.2429,0,-0.061018216,0.47,7,0,7,0,1,,,,,,,,,,
,,984820,001,2023-07-31_20h45.07.485,arm3_eps,2022.2.5,MacIntel,59.59475566,5eda9e891e6ee06df48c4b57,64c7fed44a04f777bb1e18ce,64c8012108c3a5ffeacf73f0,right,-1,1,0.2429,0,-0.068528435,0.489,8,0,8,0,1,,,,,,,,,,
,,984820,001,2023-07-31_20h45.07.485,arm3_eps,2022.2.5,MacIntel,59.59475566,5eda9e891e6ee06df48c4b57,64c7fed44a04f777bb1e18ce,64c8012108c3a5ffeacf73f0,right,-1,1,0.2429,0,-0.094352629,0.537,9,0,9,0,1,,,,,,,,,,
,,984820,001,2023-07-31_20h45.07.485,arm3_eps,2022.2.5,MacIntel,59.59475566,5eda9e891e6ee06df48c4b57,64c7fed44a04f777bb1e18ce,64c8012108c3a5ffeacf73f0,right,-1,1,0.2429,0,-0.114860014,0.687,10,0,10,0,1,,,,,,,,,,
,,984820,001,2023-07-31_20h45.07.485,arm3_eps,2022.2.5,MacIntel,59.59475566,5eda9e891e6ee06df48c4b57,64c7fed44a04f777bb1e18ce,64c8012108c3a5ffeacf73f0,down,-1,1,0.2429,1,0,3.084,11,0,11,0,1,,,,,,,,,,
,,984820,001,2023-07-31_20h45.07.485,arm3_eps,2022.2.5,MacIntel,59.59475566,5eda9e891e6ee06df48c4b57,64c7fed44a04f777bb1e18ce,64c8012108c3a5ffeacf73f0,right,-1,1,0.2429,1,0.001386886,2.476,12,0,12,0,1,,,,,,,,,,
,,984820,001,2023-07-31_20h45.07.485,arm3_eps,2022.2.5,MacIntel,59.59475566,5eda9e891e6ee06df48c4b57,64c7fed44a04f777bb1e18ce,64c8012108c3a5ffeacf73f0,right,-1,1,0.2429,1,-0.018972159,0.442,13,0,13,0,1,,,,,,,,,,
,,984820,001,2023-07-31_20h45.07.485,arm3_eps,2022.2.5,MacIntel,59.59475566,5eda9e891e6ee06df48c4b57,64c7fed44a04f777bb1e18ce,64c8012108c3a5ffeacf73f0,right,-1,1,0.2429,1,-0.071626646,0.421,14,0,14,0,1,,,,,,,,,,
,,984820,001,2023-07-31_20h45.07.485,arm3_eps,2022.2.5,MacIntel,59.59475566,5eda9e891e6ee06df48c4b57,64c7fed44a04f777bb1e18ce,64c8012108c3a5ffeacf73f0,right,-1,1,0.2429,1,-0.092074848,0.475,15,0,15,0,1,,,,,,,,,,
,,984820,001,2023-07-31_20h45.07.485,arm3_eps,2022.2.5,MacIntel,59.59475566,5eda9e891e6ee06df48c4b57,64c7fed44a04f777bb1e18ce,64c8012108c3a5ffeacf73f0,right,-1,1,0.2429,1,-0.088133383,0.389,16,0,16,0,1,,,,,,,,,,
,,984820,001,2023-07-31_20h45.07.485,arm3_eps,2022.2.5,MacIntel,59.59475566,5eda9e891e6ee06df48c4b57,64c7fed44a04f777bb1e18ce,64c8012108c3a5ffeacf73f0,right,-1,1,0.2429,1,-0.100765927,0.436,17,0,17,0,1,,,,,,,,,,
,,984820,001,2023-07-31_20h45.07.485,arm3_eps,2022.2.5,MacIntel,59.59475566,5eda9e891e6ee06df48c4b57,64c7fed44a04f777bb1e18ce,64c8012108c3a5ffeacf73f0,right,-1,1,0.2429,1,-0.103599612,0.454,18,0,18,0,1,,,,,,,,,,
,,984820,001,2023-07-31_20h45.07.485,arm3_eps,2022.2.5,MacIntel,59.59475566,5eda9e891e6ee06df48c4b57,64c7fed44a04f777bb1e18ce,64c8012108c3a5ffeacf73f0,right,-1,1,0.2429,1,-0.130385792,0.45,19,0,19,0,1,,,,,,,,,,
,,984820,001,2023-07-31_20h45.07.485,arm3_eps,2022.2.5,MacIntel,59.59475566,5eda9e891e6ee06df48c4b57,64c7fed44a04f777bb1e18ce,64c8012108c3a5ffeacf73f0,right,-1,1,0.2429,1,-0.123266292,0.551,20,0,20,0,1,,,,,,,,,,
,,984820,001,2023-07-31_20h45.07.485,arm3_eps,2022.2.5,MacIntel,59.59475566,5eda9e891e6ee06df48c4b57,64c7fed44a04f777bb1e18ce,64c8012108c3a5ffeacf73f0,down,1,1,0.2429,2,0,1.086,21,0,21,0,1,,,,,,,,,,
,,984820,001,2023-07-31_20h45.07.485,arm3_eps,2022.2.5,MacIntel,59.59475566,5eda9e891e6ee06df48c4b57,64c7fed44a04f777bb1e18ce,64c8012108c3a5ffeacf73f0,right,1,1,0.2429,2,-0.029779347,1.355,22,0,22,0,1,,,,,,,,,,
,,984820,001,2023-07-31_20h45.07.485,arm3_eps,2022.2.5,MacIntel,59.59475566,5eda9e891e6ee06df48c4b57,64c7fed44a04f777bb1e18ce,64c8012108c3a5ffeacf73f0,right,1,1,0.2429,2,-0.018738816,0.341,23,0,23,0,1,,,,,,,,,,
,,984820,001,2023-07-31_20h45.07.485,arm3_eps,2022.2.5,MacIntel,59.59475566,5eda9e891e6ee06df48c4b57,64c7fed44a04f777bb1e18ce,64c8012108c3a5ffeacf73f0,right,1,1,0.2429,2,0.014253227,0.359,24,0,24,0,1,,,,,,,,,,
,,984820,001,2023-07-31_20h45.07.485,arm3_eps,2022.2.5,MacIntel,59.59475566,5eda9e891e6ee06df48c4b57,64c7fed44a04f777bb1e18ce,64c8012108c3a5ffeacf73f0,right,1,1,0.2429,2,0.03265521,0.318,25,0,25,0,1,,,,,,,,,,
,,984820,001,2023-07-31_20h45.07.485,arm3_eps,2022.2.5,MacIntel,59.59475566,5eda9e891e6ee06df48c4b57,64c7fed44a04f777bb1e18ce,64c8012108c3a5ffeacf73f0,right,1,1,0.2429,2,0.03475156,0.305,26,0,26,0,1,,,,,,,,,,
,,984820,001,2023-07-31_20h45.07.485,arm3_eps,2022.2.5,MacIntel,59.59475566,5eda9e891e6ee06df48c4b57,64c7fed44a04f777bb1e18ce,64c8012108c3a5ffeacf73f0,right,1,1,0.2429,2,0.040018114,0.318,27,0,27,0,1,,,,,,,,,,
,,984820,001,2023-07-31_20h45.07.485,arm3_eps,2022.2.5,MacIntel,59.59475566,5eda9e891e6ee06df48c4b57,64c7fed44a04f777bb1e18ce,64c8012108c3a5ffeacf73f0,right,1,1,0.2429,2,0.02898917,0.284,28,0,28,0,1,,,,,,,,,,
,,984820,001,2023-07-31_20h45.07.485,arm3_eps,2022.2.5,MacIntel,59.59475566,5eda9e891e6ee06df48c4b57,64c7fed44a04f777bb1e18ce,64c8012108c3a5ffeacf73f0,right,1,1,0.2429,2,0.009205269,0.337,29,0,29,0,1,,,,,,,,,,
,,984820,001,2023-07-31_20h45.07.485,arm3_eps,2022.2.5,MacIntel,59.59475566,5eda9e891e6ee06df48c4b57,64c7fed44a04f777bb1e18ce,64c8012108c3a5ffeacf73f0,right,1,1,0.2429,2,0.012641533,0.267,30,0,30,0,1,,,,,,,,,,
,,984820,001,2023-07-31_20h45.07.485,arm3_eps,2022.2.5,MacIntel,59.59475566,5eda9e891e6ee06df48c4b57,64c7fed44a04f777bb1e18ce,64c8012108c3a5ffeacf73f0,right,1,1,0.2429,2,0.070491318,0.268,31,0,31,0,1,,,,,,,,,,
,,984820,001,2023-07-31_20h45.07.485,arm3_eps,2022.2.5,MacIntel,59.59475566,5eda9e891e6ee06df48c4b57,64c7fed44a04f777bb1e18ce,64c8012108c3a5ffeacf73f0,right,1,1,0.2429,2,0.040812885,0.441,32,0,32,0,1,,,,,,,,,,
,,984820,001,2023-07-31_20h45.07.485,arm3_eps,2022.2.5,MacIntel,59.59475566,5eda9e891e6ee06df48c4b57,64c7fed44a04f777bb1e18ce,64c8012108c3a5ffeacf73f0,up,1,1,0.2429,3,0,0.671,33,0,33,0,1,,,,,,,,,,
,,984820,001,2023-07-31_20h45.07.485,arm3_eps,2022.2.5,MacIntel,59.59475566,5eda9e891e6ee06df48c4b57,64c7fed44a04f777bb1e18ce,64c8012108c3a5ffeacf73f0,right,1,1,0.2429,3,0.028024366,1.121,34,0,34,0,1,,,,,,,,,,
,,984820,001,2023-07-31_20h45.07.485,arm3_eps,2022.2.5,MacIntel,59.59475566,5eda9e891e6ee06df48c4b57,64c7fed44a04f777bb1e18ce,64c8012108c3a5ffeacf73f0,right,1,1,0.2429,3,0.037913233,0.335,35,0,35,0,1,,,,,,,,,,
,,984820,001,2023-07-31_20h45.07.485,arm3_eps,2022.2.5,MacIntel,59.59475566,5eda9e891e6ee06df48c4b57,64c7fed44a04f777bb1e18ce,64c8012108c3a5ffeacf73f0,right,1,1,0.2429,3,0.071383359,0.284,36,0,36,0,1,,,,,,,,,,
,,984820,001,2023-07-31_20h45.07.485,arm3_eps,2022.2.5,MacIntel,59.59475566,5eda9e891e6ee06df48c4b57,64c7fed44a04f777bb1e18ce,64c8012108c3a5ffeacf73f0,right,1,1,0.2429,3,0.099862402,0.32,37,0,37,0,1,,,,,,,,,,
,,984820,001,2023-07-31_20h45.07.485,arm3_eps,2022.2.5,MacIntel,59.59475566,5eda9e891e6ee06df48c4b57,64c7fed44a04f777bb1e18ce,64c8012108c3a5ffeacf73f0,right,1,1,0.2429,3,0.108189694,0.369,38,0,38,0,1,,,,,,,,,,
,,984820,001,2023-07-31_20h45.07.485,arm3_eps,2022.2.5,MacIntel,59.59475566,5eda9e891e6ee06df48c4b57,64c7fed44a04f777bb1e18ce,64c8012108c3a5ffeacf73f0,right,1,1,0.2429,3,0.143319885,0.337,39,0,39,0,1,,,,,,,,,,
,,984820,001,2023-07-31_20h45.07.485,arm3_eps,2022.2.5,MacIntel,59.59475566,5eda9e891e6ee06df48c4b57,64c7fed44a04f777bb1e18ce,64c8012108c3a5ffeacf73f0,right,1,1,0.2429,3,0.177921763,0.234,40,0,40,0,1,,,,,,,,,,
,,984820,001,2023-07-31_20h45.07.485,arm3_eps,2022.2.5,MacIntel,59.59475566,5eda9e891e6ee06df48c4b57,64c7fed44a04f777bb1e18ce,64c8012108c3a5ffeacf73f0,right,1,1,0.2429,3,0.16078911,0.267,41,0,41,0,1,,,,,,,,,,
,,984820,001,2023-07-31_20h45.07.485,arm3_eps,2022.2.5,MacIntel,59.59475566,5eda9e891e6ee06df48c4b57,64c7fed44a04f777bb1e18ce,64c8012108c3a5ffeacf73f0,right,1,1,0.2429,3,0.155717097,0.233,42,0,42,0,1,,,,,,,,,,
,,984820,001,2023-07-31_20h45.07.485,arm3_eps,2022.2.5,MacIntel,59.59475566,5eda9e891e6ee06df48c4b57,64c7fed44a04f777bb1e18ce,64c8012108c3a5ffeacf73f0,right,1,1,0.2429,3,0.187131035,0.216,43,0,43,0,1,,,,,,,,,,
,,984820,001,2023-07-31_20h45.07.485,arm3_eps,2022.2.5,MacIntel,59.59475566,5eda9e891e6ee06df48c4b57,64c7fed44a04f777bb1e18ce,64c8012108c3a5ffeacf73f0,right,1,1,0.2429,3,0.207210222,0.207,44,0,44,0,1,,,,,,,,,,
,,984820,001,2023-07-31_20h45.07.485,arm3_eps,2022.2.5,MacIntel,59.59475566,5eda9e891e6ee06df48c4b57,64c7fed44a04f777bb1e18ce,64c8012108c3a5ffeacf73f0,right,1,1,0.2429,3,0.220073607,0.189,45,0,45,0,1,,,,,,,,,,
,,984820,001,2023-07-31_20h45.07.485,arm3_eps,2022.2.5,MacIntel,59.59475566,5eda9e891e6ee06df48c4b57,64c7fed44a04f777bb1e18ce,64c8012108c3a5ffeacf73f0,up,1,1,0.2429,4,0,1.186,46,0,46,0,1,,,,,,,,,,
,,984820,001,2023-07-31_20h45.07.485,arm3_eps,2022.2.5,MacIntel,59.59475566,5eda9e891e6ee06df48c4b57,64c7fed44a04f777bb1e18ce,64c8012108c3a5ffeacf73f0,right,1,1,0.2429,4,0.025986052,1.068,47,0,47,0,1,,,,,,,,,,
,,984820,001,2023-07-31_20h45.07.485,arm3_eps,2022.2.5,MacIntel,59.59475566,5eda9e891e6ee06df48c4b57,64c7fed44a04f777bb1e18ce,64c8012108c3a5ffeacf73f0,right,1,1,0.2429,4,0.040065486,0.23,48,0,48,0,1,,,,,,,,,,
,,984820,001,2023-07-31_20h45.07.485,arm3_eps,2022.2.5,MacIntel,59.59475566,5eda9e891e6ee06df48c4b57,64c7fed44a04f777bb1e18ce,64c8012108c3a5ffeacf73f0,right,1,1,0.2429,4,0.05799299,0.22,49,0,49,0,1,,,,,,,,,,
space,28.57,984820,001,2023-07-31_20h45.07.485,arm3_eps,2022.2.5,MacIntel,59.59475566,5eda9e891e6ee06df48c4b57,64c7fed44a04f777bb1e18ce,64c8012108c3a5ffeacf73f0,,,,,,,,,,,,,,,,,,,,,,
space,31.342,984820,001,2023-07-31_20h45.07.485,arm3_eps,2022.2.5,MacIntel,59.59475566,5eda9e891e6ee06df48c4b57,64c7fed44a04f777bb1e18ce,64c8012108c3a5ffeacf73f0,,,,,,,,,,,,,,,,,,,,,,
space,23.837,984820,001,2023-07-31_20h45.07.485,arm3_eps,2022.2.5,MacIntel,59.59475566,5eda9e891e6ee06df48c4b57,64c7fed44a04f777bb1e18ce,64c8012108c3a5ffeacf73f0,,,,,,,,,,,,,,,,,,,,,,
space,12.267,984820,001,2023-07-31_20h45.07.485,arm3_eps,2022.2.5,MacIntel,59.59475566,5eda9e891e6ee06df48c4b57,64c7fed44a04f777bb1e18ce,64c8012108c3a5ffeacf73f0,,,,,,,,,,,,,,,,,,,,,,
space,27.015,984820,001,2023-07-31_20h45.07.485,arm3_eps,2022.2.5,MacIntel,59.59475566,5eda9e891e6ee06df48c4b57,64c7fed44a04f777bb1e18ce,64c8012108c3a5ffeacf73f0,,,,,,,,,,,,,,,,,,,,,,
space,2.443,984820,001,2023-07-31_20h45.07.485,arm3_eps,2022.2.5,MacIntel,59.59475566,5eda9e891e6ee06df48c4b57,64c7fed44a04f777bb1e18ce,64c8012108c3a5ffeacf73f0,,,,,,,,,,,,,,,,,,,,,,
,,984820,001,2023-07-31_20h45.07.485,arm3_eps,2022.2.5,MacIntel,59.59475566,5eda9e891e6ee06df48c4b57,64c7fed44a04f777bb1e18ce,64c8012108c3a5ffeacf73f0,right,1,0.75,0.2429,0,0.02167794,2.444,0,0,0,0,1,,,,,,,,,,
,,984820,001,2023-07-31_20h45.07.485,arm3_eps,2022.2.5,MacIntel,59.59475566,5eda9e891e6ee06df48c4b57,64c7fed44a04f777bb1e18ce,64c8012108c3a5ffeacf73f0,right,1,0.75,0.2429,0,0.028817181,0.583,1,0,1,0,1,,,,,,,,,,
,,984820,001,2023-07-31_20h45.07.485,arm3_eps,2022.2.5,MacIntel,59.59475566,5eda9e891e6ee06df48c4b57,64c7fed44a04f777bb1e18ce,64c8012108c3a5ffeacf73f0,right,1,0.75,0.2429,0,-0.003933492,0.403,2,0,2,0,1,,,,,,,,,,
,,984820,001,2023-07-31_20h45.07.485,arm3_eps,2022.2.5,MacIntel,59.59475566,5eda9e891e6ee06df48c4b57,64c7fed44a04f777bb1e18ce,64c8012108c3a5ffeacf73f0,right,1,0.75,0.2429,0,0.033803927,0.507,3,0,3,0,1,,,,,,,,,,
,,984820,001,2023-07-31_20h45.07.485,arm3_eps,2022.2.5,MacIntel,59.59475566,5eda9e891e6ee06df48c4b57,64c7fed44a04f777bb1e18ce,64c8012108c3a5ffeacf73f0,right,1,0.75,0.2429,0,0.044206561,0.333,4,0,4,0,1,,,,,,,,,,
,,984820,001,2023-07-31_20h45.07.485,arm3_eps,2022.2.5,MacIntel,59.59475566,5eda9e891e6ee06df48c4b57,64c7fed44a04f777bb1e18ce,64c8012108c3a5ffeacf73f0,right,1,0.75,0.2429,0,0.080815533,0.3,5,0,5,0,1,,,,,,,,,,
,,984820,001,2023-07-31_20h45.07.485,arm3_eps,2022.2.5,MacIntel,59.59475566,5eda9e891e6ee06df48c4b57,64c7fed44a04f777bb1e18ce,64c8012108c3a5ffeacf73f0,right,1,0.75,0.2429,0,0.0854116,0.4,6,0,6,0,1,,,,,,,,,,
,,984820,001,2023-07-31_20h45.07.485,arm3_eps,2022.2.5,MacIntel,59.59475566,5eda9e891e6ee06df48c4b57,64c7fed44a04f777bb1e18ce,64c8012108c3a5ffeacf73f0,right,1,0.75,0.2429,0,0.124324188,0.383,7,0,7,0,1,,,,,,,,,,
,,984820,001,2023-07-31_20h45.07.485,arm3_eps,2022.2.5,MacIntel,59.59475566,5eda9e891e6ee06df48c4b57,64c7fed44a04f777bb1e18ce,64c8012108c3a5ffeacf73f0,right,1,0.75,0.2429,0,0.110900689,0.356,8,0,8,0,1,,,,,,,,,,
,,984820,001,2023-07-31_20h45.07.485,arm3_eps,2022.2.5,MacIntel,59.59475566,5eda9e891e6ee06df48c4b57,64c7fed44a04f777bb1e18ce,64c8012108c3a5ffeacf73f0,right,1,0.75,0.2429,0,0.104791921,0.352,9,0,9,0,1,,,,,,,,,,
,,984820,001,2023-07-31_20h45.07.485,arm3_eps,2022.2.5,MacIntel,59.59475566,5eda9e891e6ee06df48c4b57,64c7fed44a04f777bb1e18ce,64c8012108c3a5ffeacf73f0,right,1,0.75,0.2429,0,0.090380731,0.468,10,0,10,0,1,,,,,,,,,,
,,984820,001,2023-07-31_20h45.07.485,arm3_eps,2022.2.5,MacIntel,59.59475566,5eda9e891e6ee06df48c4b57,64c7fed44a04f777bb1e18ce,64c8012108c3a5ffeacf73f0,up,1,0.75,0.2429,0,0,1.706,11,0,11,0,1,,,,,,,,,,
,,984820,001,2023-07-31_20h45.07.485,arm3_eps,2022.2.5,MacIntel,59.59475566,5eda9e891e6ee06df48c4b57,64c7fed44a04f777bb1e18ce,64c8012108c3a5ffeacf73f0,right,1,0.75,0.2429,0,0.005786866,1.306,12,0,12,0,1,,,,,,,,,,
,,984820,001,2023-07-31_20h45.07.485,arm3_eps,2022.2.5,MacIntel,59.59475566,5eda9e891e6ee06df48c4b57,64c7fed44a04f777bb1e18ce,64c8012108c3a5ffeacf73f0,right,1,0.75,0.2429,0,0.015754052,0.308,13,0,13,0,1,,,,,,,,,,
,,984820,001,2023-07-31_20h45.07.485,arm3_eps,2022.2.5,MacIntel,59.59475566,5eda9e891e6ee06df48c4b57,64c7fed44a04f777bb1e18ce,64c8012108c3a5ffeacf73f0,right,1,0.75,0.2429,0,0.011742427,0.303,14,0,14,0,1,,,,,,,,,,
,,984820,001,2023-07-31_20h45.07.485,arm3_eps,2022.2.5,MacIntel,59.59475566,5eda9e891e6ee06df48c4b57,64c7fed44a04f777bb1e18ce,64c8012108c3a5ffeacf73f0,right,1,0.75,0.2429,0,0.009855629,0.282,15,0,15,0,1,,,,,,,,,,
,,984820,001,2023-07-31_20h45.07.485,arm3_eps,2022.2.5,MacIntel,59.59475566,5eda9e891e6ee06df48c4b57,64c7fed44a04f777bb1e18ce,64c8012108c3a5ffeacf73f0,right,1,0.75,0.2429,0,0.006742647,0.248,16,0,16,0,1,,,,,,,,,,
,,984820,001,2023-07-31_20h45.07.485,arm3_eps,2022.2.5,MacIntel,59.59475566,5eda9e891e6ee06df48c4b57,64c7fed44a04f777bb1e18ce,64c8012108c3a5ffeacf73f0,right,1,0.75,0.2429,0,-0.013344954,0.282,17,0,17,0,1,,,,,,,,,,
,,984820,001,2023-07-31_20h45.07.485,arm3_eps,2022.2.5,MacIntel,59.59475566,5eda9e891e6ee06df48c4b57,64c7fed44a04f777bb1e18ce,64c8012108c3a5ffeacf73f0,right,1,0.75,0.2429,0,-0.004013229,0.219,18,0,18,0,1,,,,,,,,,,
,,984820,001,2023-07-31_20h45.07.485,arm3_eps,2022.2.5,MacIntel,59.59475566,5eda9e891e6ee06df48c4b57,64c7fed44a04f777bb1e18ce,64c8012108c3a5ffeacf73f0,right,1,0.75,0.2429,0,-0.022838147,0.306,19,0,19,0,1,,,,,,,,,,
,,984820,001,2023-07-31_20h45.07.485,arm3_eps,2022.2.5,MacIntel,59.59475566,5eda9e891e6ee06df48c4b57,64c7fed44a04f777bb1e18ce,64c8012108c3a5ffeacf73f0,right,1,0.75,0.2429,0,-0.015435393,0.217,20,0,20,0,1,,,,,,,,,,
,,984820,001,2023-07-31_20h45.07.485,arm3_eps,2022.2.5,MacIntel,59.59475566,5eda9e891e6ee06df48c4b57,64c7fed44a04f777bb1e18ce,64c8012108c3a5ffeacf73f0,right,1,0.75,0.2429,0,-0.004391151,0.2,21,0,21,0,1,,,,,,,,,,
,,984820,001,2023-07-31_20h45.07.485,arm3_eps,2022.2.5,MacIntel,59.59475566,5eda9e891e6ee06df48c4b57,64c7fed44a04f777bb1e18ce,64c8012108c3a5ffeacf73f0,right,1,0.75,0.2429,0,-0.003579169,0.303,22,0,22,0,1,,,,,,,,,,
,,984820,001,2023-07-31_20h45.07.485,arm3_eps,2022.2.5,MacIntel,59.59475566,5eda9e891e6ee06df48c4b57,64c7fed44a04f777bb1e18ce,64c8012108c3a5ffeacf73f0,right,1,0.75,0.2429,0,0.041449404,0.291,23,0,23,0,1,,,,,,,,,,
,,984820,001,2023-07-31_20h45.07.485,arm3_eps,2022.2.5,MacIntel,59.59475566,5eda9e891e6ee06df48c4b57,64c7fed44a04f777bb1e18ce,64c8012108c3a5ffeacf73f0,up,1,0.75,0.2429,0,0,0.884,24,0,24,0,1,,,,,,,,,,
,,984820,001,2023-07-31_20h45.07.485,arm3_eps,2022.2.5,MacIntel,59.59475566,5eda9e891e6ee06df48c4b57,64c7fed44a04f777bb1e18ce,64c8012108c3a5ffeacf73f0,right,1,0.75,0.2429,0,0.024723315,2.047,25,0,25,0,1,,,,,,,,,,
,,984820,001,2023-07-31_20h45.07.485,arm3_eps,2022.2.5,MacIntel,59.59475566,5eda9e891e6ee06df48c4b57,64c7fed44a04f777bb1e18ce,64c8012108c3a5ffeacf73f0,right,1,0.75,0.2429,0,0.045672349,0.271,26,0,26,0,1,,,,,,,,,,
,,984820,001,2023-07-31_20h45.07.485,arm3_eps,2022.2.5,MacIntel,59.59475566,5eda9e891e6ee06df48c4b57,64c7fed44a04f777bb1e18ce,64c8012108c3a5ffeacf73f0,right,1,0.75,0.2429,0,0.083041187,0.29,27,0,27,0,1,,,,,,,,,,
,,984820,001,2023-07-31_20h45.07.485,arm3_eps,2022.2.5,MacIntel,59.59475566,5eda9e891e6ee06df48c4b57,64c7fed44a04f777bb1e18ce,64c8012108c3a5ffeacf73f0,right,1,0.75,0.2429,0,0.082984733,0.227,28,0,28,0,1,,,,,,,,,,
,,984820,001,2023-07-31_20h45.07.485,arm3_eps,2022.2.5,MacIntel,59.59475566,5eda9e891e6ee06df48c4b57,64c7fed44a04f777bb1e18ce,64c8012108c3a5ffeacf73f0,right,1,0.75,0.2429,0,0.080235474,0.319,29,0,29,0,1,,,,,,,,,,
,,984820,001,2023-07-31_20h45.07.485,arm3_eps,2022.2.5,MacIntel,59.59475566,5eda9e891e6ee06df48c4b57,64c7fed44a04f777bb1e18ce,64c8012108c3a5ffeacf73f0,right,1,0.75,0.2429,0,0.104686742,0.198,30,0,30,0,1,,,,,,,,,,
,,984820,001,2023-07-31_20h45.07.485,arm3_eps,2022.2.5,MacIntel,59.59475566,5eda9e891e6ee06df48c4b57,64c7fed44a04f777bb1e18ce,64c8012108c3a5ffeacf73f0,right,1,0.75,0.2429,0,0.143692779,0.312,31,0,31,0,1,,,,,,,,,,
,,984820,001,2023-07-31_20h45.07.485,arm3_eps,2022.2.5,MacIntel,59.59475566,5eda9e891e6ee06df48c4b57,64c7fed44a04f777bb1e18ce,64c8012108c3a5ffeacf73f0,right,1,0.75,0.2429,0,0.116596897,0.787,32,0,32,0,1,,,,,,,,,,
,,984820,001,2023-07-31_20h45.07.485,arm3_eps,2022.2.5,MacIntel,59.59475566,5eda9e891e6ee06df48c4b57,64c7fed44a04f777bb1e18ce,64c8012108c3a5ffeacf73f0,right,1,0.75,0.2429,0,0.103504927,0.331,33,0,33,0,1,,,,,,,,,,
,,984820,001,2023-07-31_20h45.07.485,arm3_eps,2022.2.5,MacIntel,59.59475566,5eda9e891e6ee06df48c4b57,64c7fed44a04f777bb1e18ce,64c8012108c3a5ffeacf73f0,right,1,0.75,0.2429,0,0.086899781,0.313,34,0,34,0,1,,,,,,,,,,
,,984820,001,2023-07-31_20h45.07.485,arm3_eps,2022.2.5,MacIntel,59.59475566,5eda9e891e6ee06df48c4b57,64c7fed44a04f777bb1e18ce,64c8012108c3a5ffeacf73f0,right,1,0.75,0.2429,0,0.090756024,0.319,35,0,35,0,1,,,,,,,,,,
,,984820,001,2023-07-31_20h45.07.485,arm3_eps,2022.2.5,MacIntel,59.59475566,5eda9e891e6ee06df48c4b57,64c7fed44a04f777bb1e18ce,64c8012108c3a5ffeacf73f0,up,-1,0.75,0.2429,1,0,0.468,36,0,36,0,1,,,,,,,,,,
,,984820,001,2023-07-31_20h45.07.485,arm3_eps,2022.2.5,MacIntel,59.59475566,5eda9e891e6ee06df48c4b57,64c7fed44a04f777bb1e18ce,64c8012108c3a5ffeacf73f0,right,-1,0.75,0.2429,1,-0.027204485,1.256,37,0,37,0,1,,,,,,,,,,
,,984820,001,2023-07-31_20h45.07.485,arm3_eps,2022.2.5,MacIntel,59.59475566,5eda9e891e6ee06df48c4b57,64c7fed44a04f777bb1e18ce,64c8012108c3a5ffeacf73f0,right,-1,0.75,0.2429,1,-0.049562305,0.34,38,0,38,0,1,,,,,,,,,,
,,984820,001,2023-07-31_20h45.07.485,arm3_eps,2022.2.5,MacIntel,59.59475566,5eda9e891e6ee06df48c4b57,64c7fed44a04f777bb1e18ce,64c8012108c3a5ffeacf73f0,right,-1,0.75,0.2429,1,-0.036950769,0.268,39,0,39,0,1,,,,,,,,,,
,,984820,001,2023-07-31_20h45.07.485,arm3_eps,2022.2.5,MacIntel,59.59475566,5eda9e891e6ee06df48c4b57,64c7fed44a04f777bb1e18ce,64c8012108c3a5ffeacf73f0,right,-1,0.75,0.2429,1,-0.035471202,0.273,40,0,40,0,1,,,,,,,,,,
,,984820,001,2023-07-31_20h45.07.485,arm3_eps,2022.2.5,MacIntel,59.59475566,5eda9e891e6ee06df48c4b57,64c7fed44a04f777bb1e18ce,64c8012108c3a5ffeacf73f0,right,-1,0.75,0.2429,1,-0.023245268,0.269,41,0,41,0,1,,,,,,,,,,
,,984820,001,2023-07-31_20h45.07.485,arm3_eps,2022.2.5,MacIntel,59.59475566,5eda9e891e6ee06df48c4b57,64c7fed44a04f777bb1e18ce,64c8012108c3a5ffeacf73f0,right,-1,0.75,0.2429,1,-0.06778715,0.244,42,0,42,0,1,,,,,,,,,,
,,984820,001,2023-07-31_20h45.07.485,arm3_eps,2022.2.5,MacIntel,59.59475566,5eda9e891e6ee06df48c4b57,64c7fed44a04f777bb1e18ce,64c8012108c3a5ffeacf73f0,right,-1,0.75,0.2429,1,-0.102268579,0.287,43,0,43,0,1,,,,,,,,,,
,,984820,001,2023-07-31_20h45.07.485,arm3_eps,2022.2.5,MacIntel,59.59475566,5eda9e891e6ee06df48c4b57,64c7fed44a04f777bb1e18ce,64c8012108c3a5ffeacf73f0,right,-1,0.75,0.2429,1,-0.130493225,0.229,44,0,44,0,1,,,,,,,,,,
,,984820,001,2023-07-31_20h45.07.485,arm3_eps,2022.2.5,MacIntel,59.59475566,5eda9e891e6ee06df48c4b57,64c7fed44a04f777bb1e18ce,64c8012108c3a5ffeacf73f0,right,-1,0.75,0.2429,1,-0.151052087,0.236,45,0,45,0,1,,,,,,,,,,
,,984820,001,2023-07-31_20h45.07.485,arm3_eps,2022.2.5,MacIntel,59.59475566,5eda9e891e6ee06df48c4b57,64c7fed44a04f777bb1e18ce,64c8012108c3a5ffeacf73f0,down,1,0.75,0.2429,2,0,0.618,46,0,46,0,1,,,,,,,,,,
,,984820,001,2023-07-31_20h45.07.485,arm3_eps,2022.2.5,MacIntel,59.59475566,5eda9e891e6ee06df48c4b57,64c7fed44a04f777bb1e18ce,64c8012108c3a5ffeacf73f0,right,1,0.75,0.2429,2,0.014644048,1.674,47,0,47,0,1,,,,,,,,,,
,,984820,001,2023-07-31_20h45.07.485,arm3_eps,2022.2.5,MacIntel,59.59475566,5eda9e891e6ee06df48c4b57,64c7fed44a04f777bb1e18ce,64c8012108c3a5ffeacf73f0,right,1,0.75,0.2429,2,0.009850547,0.266,48,0,48,0,1,,,,,,,,,,
,,984820,001,2023-07-31_20h45.07.485,arm3_eps,2022.2.5,MacIntel,59.59475566,5eda9e891e6ee06df48c4b57,64c7fed44a04f777bb1e18ce,64c8012108c3a5ffeacf73f0,right,1,0.75,0.2429,2,0.033522379,0.269,49,0,49,0,1,,,,,,,,,,
space,21.18,984820,001,2023-07-31_20h45.07.485,arm3_eps,2022.2.5,MacIntel,59.59475566,5eda9e891e6ee06df48c4b57,64c7fed44a04f777bb1e18ce,64c8012108c3a5ffeacf73f0,,,,,,,,,,,,,,,,,,,,,,
space,15.306,984820,001,2023-07-31_20h45.07.485,arm3_eps,2022.2.5,MacIntel,59.59475566,5eda9e891e6ee06df48c4b57,64c7fed44a04f777bb1e18ce,64c8012108c3a5ffeacf73f0,,,,,,,,,,,,,,,,,,,,,,
space,1.19,984820,001,2023-07-31_20h45.07.485,arm3_eps,2022.2.5,MacIntel,59.59475566,5eda9e891e6ee06df48c4b57,64c7fed44a04f777bb1e18ce,64c8012108c3a5ffeacf73f0,,,,,,,,,,,,,,,,,,,,,,
,,984820,001,2023-07-31_20h45.07.485,arm3_eps,2022.2.5,MacIntel,59.59475566,5eda9e891e6ee06df48c4b57,64c7fed44a04f777bb1e18ce,64c8012108c3a5ffeacf73f0,right,1,0.75,0.05,0,0.020407156,1.538,0,0,0,0,1,,,,,,,,,,
,,984820,001,2023-07-31_20h45.07.485,arm3_eps,2022.2.5,MacIntel,59.59475566,5eda9e891e6ee06df48c4b57,64c7fed44a04f777bb1e18ce,64c8012108c3a5ffeacf73f0,right,1,0.75,0.05,0,0.023624957,0.246,1,0,1,0,1,,,,,,,,,,
,,984820,001,2023-07-31_20h45.07.485,arm3_eps,2022.2.5,MacIntel,59.59475566,5eda9e891e6ee06df48c4b57,64c7fed44a04f777bb1e18ce,64c8012108c3a5ffeacf73f0,right,1,0.75,0.05,0,0.04721254,0.205,2,0,2,0,1,,,,,,,,,,
,,984820,001,2023-07-31_20h45.07.485,arm3_eps,2022.2.5,MacIntel,59.59475566,5eda9e891e6ee06df48c4b57,64c7fed44a04f777bb1e18ce,64c8012108c3a5ffeacf73f0,right,1,0.75,0.05,0,0.062252193,0.203,3,0,3,0,1,,,,,,,,,,
,,984820,001,2023-07-31_20h45.07.485,arm3_eps,2022.2.5,MacIntel,59.59475566,5eda9e891e6ee06df48c4b57,64c7fed44a04f777bb1e18ce,64c8012108c3a5ffeacf73f0,right,1,0.75,0.05,0,0.068966704,0.184,4,0,4,0,1,,,,,,,,,,
,,984820,001,2023-07-31_20h45.07.485,arm3_eps,2022.2.5,MacIntel,59.59475566,5eda9e891e6ee06df48c4b57,64c7fed44a04f777bb1e18ce,64c8012108c3a5ffeacf73f0,right,1,0.75,0.05,0,0.10957049,0.184,5,0,5,0,1,,,,,,,,,,
,,984820,001,2023-07-31_20h45.07.485,arm3_eps,2022.2.5,MacIntel,59.59475566,5eda9e891e6ee06df48c4b57,64c7fed44a04f777bb1e18ce,64c8012108c3a5ffeacf73f0,right,1,0.75,0.05,0,0.123854558,0.168,6,0,6,0,1,,,,,,,,,,
,,984820,001,2023-07-31_20h45.07.485,arm3_eps,2022.2.5,MacIntel,59.59475566,5eda9e891e6ee06df48c4b57,64c7fed44a04f777bb1e18ce,64c8012108c3a5ffeacf73f0,up,1,0.75,0.05,0,0,0.382,7,0,7,0,1,,,,,,,,,,
,,984820,001,2023-07-31_20h45.07.485,arm3_eps,2022.2.5,MacIntel,59.59475566,5eda9e891e6ee06df48c4b57,64c7fed44a04f777bb1e18ce,64c8012108c3a5ffeacf73f0,right,1,0.75,0.05,0,-0.023758607,1.858,8,0,8,0,1,,,,,,,,,,
,,984820,001,2023-07-31_20h45.07.485,arm3_eps,2022.2.5,MacIntel,59.59475566,5eda9e891e6ee06df48c4b57,64c7fed44a04f777bb1e18ce,64c8012108c3a5ffeacf73f0,right,1,0.75,0.05,0,-0.006728812,0.218,9,0,9,0,1,,,,,,,,,,
,,984820,001,2023-07-31_20h45.07.485,arm3_eps,2022.2.5,MacIntel,59.59475566,5eda9e891e6ee06df48c4b57,64c7fed44a04f777bb1e18ce,64c8012108c3a5ffeacf73f0,right,1,0.75,0.05,0,0.002127877,0.189,10,0,10,0,1,,,,,,,,,,
,,984820,001,2023-07-31_20h45.07.485,arm3_eps,2022.2.5,MacIntel,59.59475566,5eda9e891e6ee06df48c4b57,64c7fed44a04f777bb1e18ce,64c8012108c3a5ffeacf73f0,right,1,0.75,0.05,0,0.013858237,0.188,11,0,11,0,1,,,,,,,,,,
,,984820,001,2023-07-31_20h45.07.485,arm3_eps,2022.2.5,MacIntel,59.59475566,5eda9e891e6ee06df48c4b57,64c7fed44a04f777bb1e18ce,64c8012108c3a5ffeacf73f0,right,1,0.75,0.05,0,0.01850133,0.2,12,0,12,0,1,,,,,,,,,,
,,984820,001,2023-07-31_20h45.07.485,arm3_eps,2022.2.5,MacIntel,59.59475566,5eda9e891e6ee06df48c4b57,64c7fed44a04f777bb1e18ce,64c8012108c3a5ffeacf73f0,right,1,0.75,0.05,0,0.041997906,0.184,13,0,13,0,1,,,,,,,,,,
,,984820,001,2023-07-31_20h45.07.485,arm3_eps,2022.2.5,MacIntel,59.59475566,5eda9e891e6ee06df48c4b57,64c7fed44a04f777bb1e18ce,64c8012108c3a5ffeacf73f0,right,1,0.75,0.05,0,0.065955287,0.169,14,0,14,0,1,,,,,,,,,,
,,984820,001,2023-07-31_20h45.07.485,arm3_eps,2022.2.5,MacIntel,59.59475566,5eda9e891e6ee06df48c4b57,64c7fed44a04f777bb1e18ce,64c8012108c3a5ffeacf73f0,right,1,0.75,0.05,0,0.070459248,0.152,15,0,15,0,1,,,,,,,,,,
,,984820,001,2023-07-31_20h45.07.485,arm3_eps,2022.2.5,MacIntel,59.59475566,5eda9e891e6ee06df48c4b57,64c7fed44a04f777bb1e18ce,64c8012108c3a5ffeacf73f0,right,1,0.75,0.05,0,0.08398087,0.171,16,0,16,0,1,,,,,,,,,,
,,984820,001,2023-07-31_20h45.07.485,arm3_eps,2022.2.5,MacIntel,59.59475566,5eda9e891e6ee06df48c4b57,64c7fed44a04f777bb1e18ce,64c8012108c3a5ffeacf73f0,right,1,0.75,0.05,0,0.06706892,0.168,17,0,17,0,1,,,,,,,,,,
,,984820,001,2023-07-31_20h45.07.485,arm3_eps,2022.2.5,MacIntel,59.59475566,5eda9e891e6ee06df48c4b57,64c7fed44a04f777bb1e18ce,64c8012108c3a5ffeacf73f0,up,1,0.75,0.05,0,0,0.654,18,0,18,0,1,,,,,,,,,,
,,984820,001,2023-07-31_20h45.07.485,arm3_eps,2022.2.5,MacIntel,59.59475566,5eda9e891e6ee06df48c4b57,64c7fed44a04f777bb1e18ce,64c8012108c3a5ffeacf73f0,right,1,0.75,0.05,0,-0.038080477,1.189,19,0,19,0,1,,,,,,,,,,
,,984820,001,2023-07-31_20h45.07.485,arm3_eps,2022.2.5,MacIntel,59.59475566,5eda9e891e6ee06df48c4b57,64c7fed44a04f777bb1e18ce,64c8012108c3a5ffeacf73f0,right,1,0.75,0.05,0,-0.048157701,0.184,20,0,20,0,1,,,,,,,,,,
,,984820,001,2023-07-31_20h45.07.485,arm3_eps,2022.2.5,MacIntel,59.59475566,5eda9e891e6ee06df48c4b57,64c7fed44a04f777bb1e18ce,64c8012108c3a5ffeacf73f0,right,1,0.75,0.05,0,-0.073148995,0.171,21,0,21,0,1,,,,,,,,,,
,,984820,001,2023-07-31_20h45.07.485,arm3_eps,2022.2.5,MacIntel,59.59475566,5eda9e891e6ee06df48c4b57,64c7fed44a04f777bb1e18ce,64c8012108c3a5ffeacf73f0,right,1,0.75,0.05,0,-0.059066172,0.17,22,0,22,0,1,,,,,,,,,,
,,984820,001,2023-07-31_20h45.07.485,arm3_eps,2022.2.5,MacIntel,59.59475566,5eda9e891e6ee06df48c4b57,64c7fed44a04f777bb1e18ce,64c8012108c3a5ffeacf73f0,right,1,0.75,0.05,0,-0.042731997,0.186,23,0,23,0,1,,,,,,,,,,
,,984820,001,2023-07-31_20h45.07.485,arm3_eps,2022.2.5,MacIntel,59.59475566,5eda9e891e6ee06df48c4b57,64c7fed44a04f777bb1e18ce,64c8012108c3a5ffeacf73f0,right,1,0.75,0.05,0,-0.018685912,0.169,24,0,24,0,1,,,,,,,,,,
,,984820,001,2023-07-31_20h45.07.485,arm3_eps,2022.2.5,MacIntel,59.59475566,5eda9e891e6ee06df48c4b57,64c7fed44a04f777bb1e18ce,64c8012108c3a5ffeacf73f0,right,1,0.75,0.05,0,-0.027032282,0.189,25,0,25,0,1,,,,,,,,,,
,,984820,001,2023-07-31_20h45.07.485,arm3_eps,2022.2.5,MacIntel,59.59475566,5eda9e891e6ee06df48c4b57,64c7fed44a04f777bb1e18ce,64c8012108c3a5ffeacf73f0,right,1,0.75,0.05,0,-0.017137898,0.143,26,0,26,0,1,,,,,,,,,,
,,984820,001,2023-07-31_20h45.07.485,arm3_eps,2022.2.5,MacIntel,59.59475566,5eda9e891e6ee06df48c4b57,64c7fed44a04f777bb1e18ce,64c8012108c3a5ffeacf73f0,right,1,0.75,0.05,0,-0.024159664,0.155,27,0,27,0,1,,,,,,,,,,
,,984820,001,2023-07-31_20h45.07.485,arm3_eps,2022.2.5,MacIntel,59.59475566,5eda9e891e6ee06df48c4b57,64c7fed44a04f777bb1e18ce,64c8012108c3a5ffeacf73f0,right,1,0.75,0.05,0,-0.01110242,0.159,28,0,28,0,1,,,,,,,,,,
,,984820,001,2023-07-31_20h45.07.485,arm3_eps,2022.2.5,MacIntel,59.59475566,5eda9e891e6ee06df48c4b57,64c7fed44a04f777bb1e18ce,64c8012108c3a5ffeacf73f0,right,1,0.75,0.05,0,0.008845971,0.155,29,0,29,0,1,,,,,,,,,,
,,984820,001,2023-07-31_20h45.07.485,arm3_eps,2022.2.5,MacIntel,59.59475566,5eda9e891e6ee06df48c4b57,64c7fed44a04f777bb1e18ce,64c8012108c3a5ffeacf73f0,up,1,0.75,0.05,1,0,0.941,30,0,30,0,1,,,,,,,,,,
,,984820,001,2023-07-31_20h45.07.485,arm3_eps,2022.2.5,MacIntel,59.59475566,5eda9e891e6ee06df48c4b57,64c7fed44a04f777bb1e18ce,64c8012108c3a5ffeacf73f0,right,1,0.75,0.05,1,0.032877477,1.13,31,0,31,0,1,,,,,,,,,,
,,984820,001,2023-07-31_20h45.07.485,arm3_eps,2022.2.5,MacIntel,59.59475566,5eda9e891e6ee06df48c4b57,64c7fed44a04f777bb1e18ce,64c8012108c3a5ffeacf73f0,right,1,0.75,0.05,1,0.042062588,0.168,32,0,32,0,1,,,,,,,,,,
,,984820,001,2023-07-31_20h45.07.485,arm3_eps,2022.2.5,MacIntel,59.59475566,5eda9e891e6ee06df48c4b57,64c7fed44a04f777bb1e18ce,64c8012108c3a5ffeacf73f0,right,1,0.75,0.05,1,0.029932279,0.156,33,0,33,0,1,,,,,,,,,,
,,984820,001,2023-07-31_20h45.07.485,arm3_eps,2022.2.5,MacIntel,59.59475566,5eda9e891e6ee06df48c4b57,64c7fed44a04f777bb1e18ce,64c8012108c3a5ffeacf73f0,right,1,0.75,0.05,1,0.06761718,0.169,34,0,34,0,1,,,,,,,,,,
,,984820,001,2023-07-31_20h45.07.485,arm3_eps,2022.2.5,MacIntel,59.59475566,5eda9e891e6ee06df48c4b57,64c7fed44a04f777bb1e18ce,64c8012108c3a5ffeacf73f0,right,1,0.75,0.05,1,0.070248521,0.161,35,0,35,0,1,,,,,,,,,,
,,984820,001,2023-07-31_20h45.07.485,arm3_eps,2022.2.5,MacIntel,59.59475566,5eda9e891e6ee06df48c4b57,64c7fed44a04f777bb1e18ce,64c8012108c3a5ffeacf73f0,right,1,0.75,0.05,1,0.067093126,0.136,36,0,36,0,1,,,,,,,,,,
,,984820,001,2023-07-31_20h45.07.485,arm3_eps,2022.2.5,MacIntel,59.59475566,5eda9e891e6ee06df48c4b57,64c7fed44a04f777bb1e18ce,64c8012108c3a5ffeacf73f0,right,1,0.75,0.05,1,0.057604228,0.168,37,0,37,0,1,,,,,,,,,,
,,984820,001,2023-07-31_20h45.07.485,arm3_eps,2022.2.5,MacIntel,59.59475566,5eda9e891e6ee06df48c4b57,64c7fed44a04f777bb1e18ce,64c8012108c3a5ffeacf73f0,right,1,0.75,0.05,1,0.076215546,0.128,38,0,38,0,1,,,,,,,,,,
,,984820,001,2023-07-31_20h45.07.485,arm3_eps,2022.2.5,MacIntel,59.59475566,5eda9e891e6ee06df48c4b57,64c7fed44a04f777bb1e18ce,64c8012108c3a5ffeacf73f0,right,1,0.75,0.05,1,0.082181485,0.169,39,0,39,0,1,,,,,,,,,,
,,984820,001,2023-07-31_20h45.07.485,arm3_eps,2022.2.5,MacIntel,59.59475566,5eda9e891e6ee06df48c4b57,64c7fed44a04f777bb1e18ce,64c8012108c3a5ffeacf73f0,right,1,0.75,0.05,1,0.109584624,0.136,40,0,40,0,1,,,,,,,,,,
,,984820,001,2023-07-31_20h45.07.485,arm3_eps,2022.2.5,MacIntel,59.59475566,5eda9e891e6ee06df48c4b57,64c7fed44a04f777bb1e18ce,64c8012108c3a5ffeacf73f0,right,1,0.75,0.05,1,0.123387966,0.154,41,0,41,0,1,,,,,,,,,,
,,984820,001,2023-07-31_20h45.07.485,arm3_eps,2022.2.5,MacIntel,59.59475566,5eda9e891e6ee06df48c4b57,64c7fed44a04f777bb1e18ce,64c8012108c3a5ffeacf73f0,up,1,0.75,0.05,2,0,0.452,42,0,42,0,1,,,,,,,,,,
,,984820,001,2023-07-31_20h45.07.485,arm3_eps,2022.2.5,MacIntel,59.59475566,5eda9e891e6ee06df48c4b57,64c7fed44a04f777bb1e18ce,64c8012108c3a5ffeacf73f0,right,1,0.75,0.05,2,0.029286706,2.044,43,0,43,0,1,,,,,,,,,,
,,984820,001,2023-07-31_20h45.07.485,arm3_eps,2022.2.5,MacIntel,59.59475566,5eda9e891e6ee06df48c4b57,64c7fed44a04f777bb1e18ce,64c8012108c3a5ffeacf73f0,right,1,0.75,0.05,2,-0.000909912,0.204,44,0,44,0,1,,,,,,,,,,
,,984820,001,2023-07-31_20h45.07.485,arm3_eps,2022.2.5,MacIntel,59.59475566,5eda9e891e6ee06df48c4b57,64c7fed44a04f777bb1e18ce,64c8012108c3a5ffeacf73f0,right,1,0.75,0.05,2,0.021382048,0.166,45,0,45,0,1,,,,,,,,,,
,,984820,001,2023-07-31_20h45.07.485,arm3_eps,2022.2.5,MacIntel,59.59475566,5eda9e891e6ee06df48c4b57,64c7fed44a04f777bb1e18ce,64c8012108c3a5ffeacf73f0,right,1,0.75,0.05,2,-0.002357121,0.17,46,0,46,0,1,,,,,,,,,,
,,984820,001,2023-07-31_20h45.07.485,arm3_eps,2022.2.5,MacIntel,59.59475566,5eda9e891e6ee06df48c4b57,64c7fed44a04f777bb1e18ce,64c8012108c3a5ffeacf73f0,right,1,0.75,0.05,2,-0.013699122,0.17,47,0,47,0,1,,,,,,,,,,
,,984820,001,2023-07-31_20h45.07.485,arm3_eps,2022.2.5,MacIntel,59.59475566,5eda9e891e6ee06df48c4b57,64c7fed44a04f777bb1e18ce,64c8012108c3a5ffeacf73f0,right,1,0.75,0.05,2,0.018248751,0.164,48,0,48,0,1,,,,,,,,,,
,,984820,001,2023-07-31_20h45.07.485,arm3_eps,2022.2.5,MacIntel,59.59475566,5eda9e891e6ee06df48c4b57,64c7fed44a04f777bb1e18ce,64c8012108c3a5ffeacf73f0,right,1,0.75,0.05,2,0.043949745,0.169,49,0,49,0,1,,,,,,,,,,
space,16.431,984820,001,2023-07-31_20h45.07.485,arm3_eps,2022.2.5,MacIntel,59.59475566,5eda9e891e6ee06df48c4b57,64c7fed44a04f777bb1e18ce,64c8012108c3a5ffeacf73f0,,,,,,,,,,,,,,,,,,,,,,
space,1.09,984820,001,2023-07-31_20h45.07.485,arm3_eps,2022.2.5,MacIntel,59.59475566,5eda9e891e6ee06df48c4b57,64c7fed44a04f777bb1e18ce,64c8012108c3a5ffeacf73f0,,,,,,,,,,,,,,,,,,,,,,
,,984820,001,2023-07-31_20h45.07.485,arm3_eps,2022.2.5,MacIntel,59.59475566,5eda9e891e6ee06df48c4b57,64c7fed44a04f777bb1e18ce,64c8012108c3a5ffeacf73f0,right,1,0.75,0.5,0,-0.017561342,1.517,0,0,0,0,1,,,,,,,,,,
,,984820,001,2023-07-31_20h45.07.485,arm3_eps,2022.2.5,MacIntel,59.59475566,5eda9e891e6ee06df48c4b57,64c7fed44a04f777bb1e18ce,64c8012108c3a5ffeacf73f0,right,1,0.75,0.5,0,-0.018321189,0.235,1,0,1,0,1,,,,,,,,,,
,,984820,001,2023-07-31_20h45.07.485,arm3_eps,2022.2.5,MacIntel,59.59475566,5eda9e891e6ee06df48c4b57,64c7fed44a04f777bb1e18ce,64c8012108c3a5ffeacf73f0,right,1,0.75,0.5,0,-0.017922103,0.186,2,0,2,0,1,,,,,,,,,,
,,984820,001,2023-07-31_20h45.07.485,arm3_eps,2022.2.5,MacIntel,59.59475566,5eda9e891e6ee06df48c4b57,64c7fed44a04f777bb1e18ce,64c8012108c3a5ffeacf73f0,right,1,0.75,0.5,0,-0.011720177,0.188,3,0,3,0,1,,,,,,,,,,
,,984820,001,2023-07-31_20h45.07.485,arm3_eps,2022.2.5,MacIntel,59.59475566,5eda9e891e6ee06df48c4b57,64c7fed44a04f777bb1e18ce,64c8012108c3a5ffeacf73f0,right,1,0.75,0.5,0,0.014381171,0.167,4,0,4,0,1,,,,,,,,,,
,,984820,001,2023-07-31_20h45.07.485,arm3_eps,2022.2.5,MacIntel,59.59475566,5eda9e891e6ee06df48c4b57,64c7fed44a04f777bb1e18ce,64c8012108c3a5ffeacf73f0,right,1,0.75,0.5,0,0.025333266,0.186,5,0,5,0,1,,,,,,,,,,
,,984820,001,2023-07-31_20h45.07.485,arm3_eps,2022.2.5,MacIntel,59.59475566,5eda9e891e6ee06df48c4b57,64c7fed44a04f777bb1e18ce,64c8012108c3a5ffeacf73f0,right,1,0.75,0.5,0,0.051572011,0.169,6,0,6,0,1,,,,,,,,,,
,,984820,001,2023-07-31_20h45.07.485,arm3_eps,2022.2.5,MacIntel,59.59475566,5eda9e891e6ee06df48c4b57,64c7fed44a04f777bb1e18ce,64c8012108c3a5ffeacf73f0,right,1,0.75,0.5,0,0.05521179,0.169,7,0,7,0,1,,,,,,,,,,
,,984820,001,2023-07-31_20h45.07.485,arm3_eps,2022.2.5,MacIntel,59.59475566,5eda9e891e6ee06df48c4b57,64c7fed44a04f777bb1e18ce,64c8012108c3a5ffeacf73f0,right,1,0.75,0.5,0,0.064822944,0.186,8,0,8,0,1,,,,,,,,,,
,,984820,001,2023-07-31_20h45.07.485,arm3_eps,2022.2.5,MacIntel,59.59475566,5eda9e891e6ee06df48c4b57,64c7fed44a04f777bb1e18ce,64c8012108c3a5ffeacf73f0,right,1,0.75,0.5,0,0.094101902,0.2,9,0,9,0,1,,,,,,,,,,
,,984820,001,2023-07-31_20h45.07.485,arm3_eps,2022.2.5,MacIntel,59.59475566,5eda9e891e6ee06df48c4b57,64c7fed44a04f777bb1e18ce,64c8012108c3a5ffeacf73f0,up,1,0.75,0.5,1,0,0.407,10,0,10,0,1,,,,,,,,,,
,,984820,001,2023-07-31_20h45.07.485,arm3_eps,2022.2.5,MacIntel,59.59475566,5eda9e891e6ee06df48c4b57,64c7fed44a04f777bb1e18ce,64c8012108c3a5ffeacf73f0,right,1,0.75,0.5,1,-0.005929218,1.222,11,0,11,0,1,,,,,,,,,,
,,984820,001,2023-07-31_20h45.07.485,arm3_eps,2022.2.5,MacIntel,59.59475566,5eda9e891e6ee06df48c4b57,64c7fed44a04f777bb1e18ce,64c8012108c3a5ffeacf73f0,right,1,0.75,0.5,1,0.038788927,0.218,12,0,12,0,1,,,,,,,,,,
,,984820,001,2023-07-31_20h45.07.485,arm3_eps,2022.2.5,MacIntel,59.59475566,5eda9e891e6ee06df48c4b57,64c7fed44a04f777bb1e18ce,64c8012108c3a5ffeacf73f0,right,1,0.75,0.5,1,0.076528991,0.187,13,0,13,0,1,,,,,,,,,,
,,984820,001,2023-07-31_20h45.07.485,arm3_eps,2022.2.5,MacIntel,59.59475566,5eda9e891e6ee06df48c4b57,64c7fed44a04f777bb1e18ce,64c8012108c3a5ffeacf73f0,right,1,0.75,0.5,1,0.077692241,0.172,14,0,14,0,1,,,,,,,,,,
,,984820,001,2023-07-31_20h45.07.485,arm3_eps,2022.2.5,MacIntel,59.59475566,5eda9e891e6ee06df48c4b57,64c7fed44a04f777bb1e18ce,64c8012108c3a5ffeacf73f0,right,1,0.75,0.5,1,0.059637791,0.168,15,0,15,0,1,,,,,,,,,,
,,984820,001,2023-07-31_20h45.07.485,arm3_eps,2022.2.5,MacIntel,59.59475566,5eda9e891e6ee06df48c4b57,64c7fed44a04f777bb1e18ce,64c8012108c3a5ffeacf73f0,right,1,0.75,0.5,1,0.065477466,0.157,16,0,16,0,1,,,,,,,,,,
,,984820,001,2023-07-31_20h45.07.485,arm3_eps,2022.2.5,MacIntel,59.59475566,5eda9e891e6ee06df48c4b57,64c7fed44a04f777bb1e18ce,64c8012108c3a5ffeacf73f0,right,1,0.75,0.5,1,0.065933443,0.168,17,0,17,0,1,,,,,,,,,,
,,984820,001,2023-07-31_20h45.07.485,arm3_eps,2022.2.5,MacIntel,59.59475566,5eda9e891e6ee06df48c4b57,64c7fed44a04f777bb1e18ce,64c8012108c3a5ffeacf73f0,right,1,0.75,0.5,1,0.077038225,0.168,18,0,18,0,1,,,,,,,,,,
,,984820,001,2023-07-31_20h45.07.485,arm3_eps,2022.2.5,MacIntel,59.59475566,5eda9e891e6ee06df48c4b57,64c7fed44a04f777bb1e18ce,64c8012108c3a5ffeacf73f0,right,1,0.75,0.5,1,0.086940139,0.151,19,0,19,0,1,,,,,,,,,,
,,984820,001,2023-07-31_20h45.07.485,arm3_eps,2022.2.5,MacIntel,59.59475566,5eda9e891e6ee06df48c4b57,64c7fed44a04f777bb1e18ce,64c8012108c3a5ffeacf73f0,right,1,0.75,0.5,1,0.102568294,0.151,20,0,20,0,1,,,,,,,,,,
,,984820,001,2023-07-31_20h45.07.485,arm3_eps,2022.2.5,MacIntel,59.59475566,5eda9e891e6ee06df48c4b57,64c7fed44a04f777bb1e18ce,64c8012108c3a5ffeacf73f0,up,1,0.75,0.5,2,0,0.336,21,0,21,0,1,,,,,,,,,,
,,984820,001,2023-07-31_20h45.07.485,arm3_eps,2022.2.5,MacIntel,59.59475566,5eda9e891e6ee06df48c4b57,64c7fed44a04f777bb1e18ce,64c8012108c3a5ffeacf73f0,right,1,0.75,0.5,2,0.011237856,1.54,22,0,22,0,1,,,,,,,,,,
,,984820,001,2023-07-31_20h45.07.485,arm3_eps,2022.2.5,MacIntel,59.59475566,5eda9e891e6ee06df48c4b57,64c7fed44a04f777bb1e18ce,64c8012108c3a5ffeacf73f0,right,1,0.75,0.5,2,0.054862345,0.203,23,0,23,0,1,,,,,,,,,,
,,984820,001,2023-07-31_20h45.07.485,arm3_eps,2022.2.5,MacIntel,59.59475566,5eda9e891e6ee06df48c4b57,64c7fed44a04f777bb1e18ce,64c8012108c3a5ffeacf73f0,right,1,0.75,0.5,2,0.077398476,0.17,24,0,24,0,1,,,,,,,,,,
,,984820,001,2023-07-31_20h45.07.485,arm3_eps,2022.2.5,MacIntel,59.59475566,5eda9e891e6ee06df48c4b57,64c7fed44a04f777bb1e18ce,64c8012108c3a5ffeacf73f0,right,1,0.75,0.5,2,0.078504112,0.17,25,0,25,0,1,,,,,,,,,,
,,984820,001,2023-07-31_20h45.07.485,arm3_eps,2022.2.5,MacIntel,59.59475566,5eda9e891e6ee06df48c4b57,64c7fed44a04f777bb1e18ce,64c8012108c3a5ffeacf73f0,right,1,0.75,0.5,2,0.084862405,0.184,26,0,26,0,1,,,,,,,,,,
,,984820,001,2023-07-31_20h45.07.485,arm3_eps,2022.2.5,MacIntel,59.59475566,5eda9e891e6ee06df48c4b57,64c7fed44a04f777bb1e18ce,64c8012108c3a5ffeacf73f0,right,1,0.75,0.5,2,0.117047196,0.224,27,0,27,0,1,,,,,,,,,,
,,984820,001,2023-07-31_20h45.07.485,arm3_eps,2022.2.5,MacIntel,59.59475566,5eda9e891e6ee06df48c4b57,64c7fed44a04f777bb1e18ce,64c8012108c3a5ffeacf73f0,right,1,0.75,0.5,2,0.114905893,0.167,28,0,28,0,1,,,,,,,,,,
,,984820,001,2023-07-31_20h45.07.485,arm3_eps,2022.2.5,MacIntel,59.59475566,5eda9e891e6ee06df48c4b57,64c7fed44a04f777bb1e18ce,64c8012108c3a5ffeacf73f0,up,1,0.75,0.5,3,0,0.904,29,0,29,0,1,,,,,,,,,,
,,984820,001,2023-07-31_20h45.07.485,arm3_eps,2022.2.5,MacIntel,59.59475566,5eda9e891e6ee06df48c4b57,64c7fed44a04f777bb1e18ce,64c8012108c3a5ffeacf73f0,right,1,0.75,0.5,3,0.023419425,1.071,30,0,30,0,1,,,,,,,,,,
,,984820,001,2023-07-31_20h45.07.485,arm3_eps,2022.2.5,MacIntel,59.59475566,5eda9e891e6ee06df48c4b57,64c7fed44a04f777bb1e18ce,64c8012108c3a5ffeacf73f0,right,1,0.75,0.5,3,0.049135867,0.189,31,0,31,0,1,,,,,,,,,,
,,984820,001,2023-07-31_20h45.07.485,arm3_eps,2022.2.5,MacIntel,59.59475566,5eda9e891e6ee06df48c4b57,64c7fed44a04f777bb1e18ce,64c8012108c3a5ffeacf73f0,right,1,0.75,0.5,3,0.081775419,0.185,32,0,32,0,1,,,,,,,,,,
,,984820,001,2023-07-31_20h45.07.485,arm3_eps,2022.2.5,MacIntel,59.59475566,5eda9e891e6ee06df48c4b57,64c7fed44a04f777bb1e18ce,64c8012108c3a5ffeacf73f0,right,1,0.75,0.5,3,0.083375333,0.13,33,0,33,0,1,,,,,,,,,,
,,984820,001,2023-07-31_20h45.07.485,arm3_eps,2022.2.5,MacIntel,59.59475566,5eda9e891e6ee06df48c4b57,64c7fed44a04f777bb1e18ce,64c8012108c3a5ffeacf73f0,right,1,0.75,0.5,3,0.070542877,0.175,34,0,34,0,1,,,,,,,,,,
,,984820,001,2023-07-31_20h45.07.485,arm3_eps,2022.2.5,MacIntel,59.59475566,5eda9e891e6ee06df48c4b57,64c7fed44a04f777bb1e18ce,64c8012108c3a5ffeacf73f0,right,1,0.75,0.5,3,0.094288001,0.152,35,0,35,0,1,,,,,,,,,,
,,984820,001,2023-07-31_20h45.07.485,arm3_eps,2022.2.5,MacIntel,59.59475566,5eda9e891e6ee06df48c4b57,64c7fed44a04f777bb1e18ce,64c8012108c3a5ffeacf73f0,right,1,0.75,0.5,3,0.131868328,0.162,36,0,36,0,1,,,,,,,,,,
,,984820,001,2023-07-31_20h45.07.485,arm3_eps,2022.2.5,MacIntel,59.59475566,5eda9e891e6ee06df48c4b57,64c7fed44a04f777bb1e18ce,64c8012108c3a5ffeacf73f0,right,1,0.75,0.5,3,0.14633103,0.169,37,0,37,0,1,,,,,,,,,,
,,984820,001,2023-07-31_20h45.07.485,arm3_eps,2022.2.5,MacIntel,59.59475566,5eda9e891e6ee06df48c4b57,64c7fed44a04f777bb1e18ce,64c8012108c3a5ffeacf73f0,up,-1,0.75,0.5,4,0,0.349,38,0,38,0,1,,,,,,,,,,
,,984820,001,2023-07-31_20h45.07.485,arm3_eps,2022.2.5,MacIntel,59.59475566,5eda9e891e6ee06df48c4b57,64c7fed44a04f777bb1e18ce,64c8012108c3a5ffeacf73f0,right,-1,0.75,0.5,4,-0.02218912,2.827,39,0,39,0,1,,,,,,,,,,
,,984820,001,2023-07-31_20h45.07.485,arm3_eps,2022.2.5,MacIntel,59.59475566,5eda9e891e6ee06df48c4b57,64c7fed44a04f777bb1e18ce,64c8012108c3a5ffeacf73f0,right,-1,0.75,0.5,4,0.006117837,0.166,40,0,40,0,1,,,,,,,,,,
,,984820,001,2023-07-31_20h45.07.485,arm3_eps,2022.2.5,MacIntel,59.59475566,5eda9e891e6ee06df48c4b57,64c7fed44a04f777bb1e18ce,64c8012108c3a5ffeacf73f0,right,-1,0.75,0.5,4,0.003183458,0.179,41,0,41,0,1,,,,,,,,,,
,,984820,001,2023-07-31_20h45.07.485,arm3_eps,2022.2.5,MacIntel,59.59475566,5eda9e891e6ee06df48c4b57,64c7fed44a04f777bb1e18ce,64c8012108c3a5ffeacf73f0,right,-1,0.75,0.5,4,0.019026896,0.169,42,0,42,0,1,,,,,,,,,,
,,984820,001,2023-07-31_20h45.07.485,arm3_eps,2022.2.5,MacIntel,59.59475566,5eda9e891e6ee06df48c4b57,64c7fed44a04f777bb1e18ce,64c8012108c3a5ffeacf73f0,right,-1,0.75,0.5,4,-0.001003378,0.168,43,0,43,0,1,,,,,,,,,,
,,984820,001,2023-07-31_20h45.07.485,arm3_eps,2022.2.5,MacIntel,59.59475566,5eda9e891e6ee06df48c4b57,64c7fed44a04f777bb1e18ce,64c8012108c3a5ffeacf73f0,right,-1,0.75,0.5,4,-0.002743466,0.151,44,0,44,0,1,,,,,,,,,,
,,984820,001,2023-07-31_20h45.07.485,arm3_eps,2022.2.5,MacIntel,59.59475566,5eda9e891e6ee06df48c4b57,64c7fed44a04f777bb1e18ce,64c8012108c3a5ffeacf73f0,right,-1,0.75,0.5,4,0.020194939,0.167,45,0,45,0,1,,,,,,,,,,
,,984820,001,2023-07-31_20h45.07.485,arm3_eps,2022.2.5,MacIntel,59.59475566,5eda9e891e6ee06df48c4b57,64c7fed44a04f777bb1e18ce,64c8012108c3a5ffeacf73f0,right,-1,0.75,0.5,4,0.011583128,0.153,46,0,46,0,1,,,,,,,,,,
,,984820,001,2023-07-31_20h45.07.485,arm3_eps,2022.2.5,MacIntel,59.59475566,5eda9e891e6ee06df48c4b57,64c7fed44a04f777bb1e18ce,64c8012108c3a5ffeacf73f0,right,-1,0.75,0.5,4,-0.001900128,0.171,47,0,47,0,1,,,,,,,,,,
,,984820,001,2023-07-31_20h45.07.485,arm3_eps,2022.2.5,MacIntel,59.59475566,5eda9e891e6ee06df48c4b57,64c7fed44a04f777bb1e18ce,64c8012108c3a5ffeacf73f0,right,-1,0.75,0.5,4,-0.003736682,0.686,48,0,48,0,1,,,,,,,,,,
,,984820,001,2023-07-31_20h45.07.485,arm3_eps,2022.2.5,MacIntel,59.59475566,5eda9e891e6ee06df48c4b57,64c7fed44a04f777bb1e18ce,64c8012108c3a5ffeacf73f0,down,-1,0.75,0.5,4,-0.003736682,0.97,49,0,49,0,1,,,,,,,,,,
space,2.187,984820,001,2023-07-31_20h45.07.485,arm3_eps,2022.2.5,MacIntel,59.59475566,5eda9e891e6ee06df48c4b57,64c7fed44a04f777bb1e18ce,64c8012108c3a5ffeacf73f0,,,,,,,,,,,,,,,,,,,,,,
space,3.476,984820,001,2023-07-31_20h45.07.485,arm3_eps,2022.2.5,MacIntel,59.59475566,5eda9e891e6ee06df48c4b57,64c7fed44a04f777bb1e18ce,64c8012108c3a5ffeacf73f0,right,-1,0.75,0.3714,0,-0.018993094,1.202,,,,,,0,0,0,0,1,,,,,
,,984820,001,2023-07-31_20h45.07.485,arm3_eps,2022.2.5,MacIntel,59.59475566,5eda9e891e6ee06df48c4b57,64c7fed44a04f777bb1e18ce,64c8012108c3a5ffeacf73f0,right,-1,0.75,0.3714,0,-0.033913161,0.236,,,,,,1,0,1,0,1,,,,,
,,984820,001,2023-07-31_20h45.07.485,arm3_eps,2022.2.5,MacIntel,59.59475566,5eda9e891e6ee06df48c4b57,64c7fed44a04f777bb1e18ce,64c8012108c3a5ffeacf73f0,right,-1,0.75,0.3714,0,-0.060769192,0.201,,,,,,2,0,2,0,1,,,,,
,,984820,001,2023-07-31_20h45.07.485,arm3_eps,2022.2.5,MacIntel,59.59475566,5eda9e891e6ee06df48c4b57,64c7fed44a04f777bb1e18ce,64c8012108c3a5ffeacf73f0,right,-1,0.75,0.3714,0,-0.021785396,0.202,,,,,,3,0,3,0,1,,,,,
,,984820,001,2023-07-31_20h45.07.485,arm3_eps,2022.2.5,MacIntel,59.59475566,5eda9e891e6ee06df48c4b57,64c7fed44a04f777bb1e18ce,64c8012108c3a5ffeacf73f0,right,-1,0.75,0.3714,0,-0.055674765,0.179,,,,,,4,0,4,0,1,,,,,
,,984820,001,2023-07-31_20h45.07.485,arm3_eps,2022.2.5,MacIntel,59.59475566,5eda9e891e6ee06df48c4b57,64c7fed44a04f777bb1e18ce,64c8012108c3a5ffeacf73f0,right,-1,0.75,0.3714,0,-0.045954083,0.169,,,,,,5,0,5,0,1,,,,,
,,984820,001,2023-07-31_20h45.07.485,arm3_eps,2022.2.5,MacIntel,59.59475566,5eda9e891e6ee06df48c4b57,64c7fed44a04f777bb1e18ce,64c8012108c3a5ffeacf73f0,right,-1,0.75,0.3714,0,-0.0298515,0.184,,,,,,6,0,6,0,1,,,,,
,,984820,001,2023-07-31_20h45.07.485,arm3_eps,2022.2.5,MacIntel,59.59475566,5eda9e891e6ee06df48c4b57,64c7fed44a04f777bb1e18ce,64c8012108c3a5ffeacf73f0,right,-1,0.75,0.3714,0,-0.017677702,0.17,,,,,,7,0,7,0,1,,,,,
,,984820,001,2023-07-31_20h45.07.485,arm3_eps,2022.2.5,MacIntel,59.59475566,5eda9e891e6ee06df48c4b57,64c7fed44a04f777bb1e18ce,64c8012108c3a5ffeacf73f0,right,-1,0.75,0.3714,0,-0.030277094,0.188,,,,,,8,0,8,0,1,,,,,
,,984820,001,2023-07-31_20h45.07.485,arm3_eps,2022.2.5,MacIntel,59.59475566,5eda9e891e6ee06df48c4b57,64c7fed44a04f777bb1e18ce,64c8012108c3a5ffeacf73f0,right,-1,0.75,0.3714,0,0.008039797,0.184,,,,,,9,0,9,0,1,,,,,
,,984820,001,2023-07-31_20h45.07.485,arm3_eps,2022.2.5,MacIntel,59.59475566,5eda9e891e6ee06df48c4b57,64c7fed44a04f777bb1e18ce,64c8012108c3a5ffeacf73f0,right,-1,0.75,0.3714,0,-0.014400494,0.201,,,,,,10,0,10,0,1,,,,,
,,984820,001,2023-07-31_20h45.07.485,arm3_eps,2022.2.5,MacIntel,59.59475566,5eda9e891e6ee06df48c4b57,64c7fed44a04f777bb1e18ce,64c8012108c3a5ffeacf73f0,down,-1,0.75,0.3714,1,0,0.617,,,,,,11,0,11,0,1,,,,,
,,984820,001,2023-07-31_20h45.07.485,arm3_eps,2022.2.5,MacIntel,59.59475566,5eda9e891e6ee06df48c4b57,64c7fed44a04f777bb1e18ce,64c8012108c3a5ffeacf73f0,right,-1,0.75,0.3714,1,0.004991006,1.791,,,,,,12,0,12,0,1,,,,,
,,984820,001,2023-07-31_20h45.07.485,arm3_eps,2022.2.5,MacIntel,59.59475566,5eda9e891e6ee06df48c4b57,64c7fed44a04f777bb1e18ce,64c8012108c3a5ffeacf73f0,right,-1,0.75,0.3714,1,0.0070115,0.217,,,,,,13,0,13,0,1,,,,,
,,984820,001,2023-07-31_20h45.07.485,arm3_eps,2022.2.5,MacIntel,59.59475566,5eda9e891e6ee06df48c4b57,64c7fed44a04f777bb1e18ce,64c8012108c3a5ffeacf73f0,right,-1,0.75,0.3714,1,-0.03392512,0.184,,,,,,14,0,14,0,1,,,,,
,,984820,001,2023-07-31_20h45.07.485,arm3_eps,2022.2.5,MacIntel,59.59475566,5eda9e891e6ee06df48c4b57,64c7fed44a04f777bb1e18ce,64c8012108c3a5ffeacf73f0,right,-1,0.75,0.3714,1,-0.040722556,0.158,,,,,,15,0,15,0,1,,,,,
,,984820,001,2023-07-31_20h45.07.485,arm3_eps,2022.2.5,MacIntel,59.59475566,5eda9e891e6ee06df48c4b57,64c7fed44a04f777bb1e18ce,64c8012108c3a5ffeacf73f0,right,-1,0.75,0.3714,1,-0.098163582,0.185,,,,,,16,0,16,0,1,,,,,
,,984820,001,2023-07-31_20h45.07.485,arm3_eps,2022.2.5,MacIntel,59.59475566,5eda9e891e6ee06df48c4b57,64c7fed44a04f777bb1e18ce,64c8012108c3a5ffeacf73f0,right,-1,0.75,0.3714,1,-0.093098198,0.151,,,,,,17,0,17,0,1,,,,,
,,984820,001,2023-07-31_20h45.07.485,arm3_eps,2022.2.5,MacIntel,59.59475566,5eda9e891e6ee06df48c4b57,64c7fed44a04f777bb1e18ce,64c8012108c3a5ffeacf73f0,right,-1,0.75,0.3714,1,-0.095257401,0.168,,,,,,18,0,18,0,1,,,,,
,,984820,001,2023-07-31_20h45.07.485,arm3_eps,2022.2.5,MacIntel,59.59475566,5eda9e891e6ee06df48c4b57,64c7fed44a04f777bb1e18ce,64c8012108c3a5ffeacf73f0,right,-1,0.75,0.3714,1,-0.086174536,0.168,,,,,,19,0,19,0,1,,,,,
,,984820,001,2023-07-31_20h45.07.485,arm3_eps,2022.2.5,MacIntel,59.59475566,5eda9e891e6ee06df48c4b57,64c7fed44a04f777bb1e18ce,64c8012108c3a5ffeacf73f0,right,-1,0.75,0.3714,1,-0.054022724,0.167,,,,,,20,0,20,0,1,,,,,
,,984820,001,2023-07-31_20h45.07.485,arm3_eps,2022.2.5,MacIntel,59.59475566,5eda9e891e6ee06df48c4b57,64c7fed44a04f777bb1e18ce,64c8012108c3a5ffeacf73f0,right,-1,0.75,0.3714,1,-0.054416334,0.185,,,,,,21,0,21,0,1,,,,,
,,984820,001,2023-07-31_20h45.07.485,arm3_eps,2022.2.5,MacIntel,59.59475566,5eda9e891e6ee06df48c4b57,64c7fed44a04f777bb1e18ce,64c8012108c3a5ffeacf73f0,right,-1,0.75,0.3714,1,-0.083913543,0.167,,,,,,22,0,22,0,1,,,,,
,,984820,001,2023-07-31_20h45.07.485,arm3_eps,2022.2.5,MacIntel,59.59475566,5eda9e891e6ee06df48c4b57,64c7fed44a04f777bb1e18ce,64c8012108c3a5ffeacf73f0,right,-1,0.75,0.3714,1,-0.095484184,0.251,,,,,,23,0,23,0,1,,,,,
,,984820,001,2023-07-31_20h45.07.485,arm3_eps,2022.2.5,MacIntel,59.59475566,5eda9e891e6ee06df48c4b57,64c7fed44a04f777bb1e18ce,64c8012108c3a5ffeacf73f0,down,1,0.75,0.3714,2,0,0.468,,,,,,24,0,24,0,1,,,,,
,,984820,001,2023-07-31_20h45.07.485,arm3_eps,2022.2.5,MacIntel,59.59475566,5eda9e891e6ee06df48c4b57,64c7fed44a04f777bb1e18ce,64c8012108c3a5ffeacf73f0,right,1,0.75,0.3714,2,0.021592585,1.147,,,,,,25,0,25,0,1,,,,,
,,984820,001,2023-07-31_20h45.07.485,arm3_eps,2022.2.5,MacIntel,59.59475566,5eda9e891e6ee06df48c4b57,64c7fed44a04f777bb1e18ce,64c8012108c3a5ffeacf73f0,right,1,0.75,0.3714,2,0.02880325,0.185,,,,,,26,0,26,0,1,,,,,
,,984820,001,2023-07-31_20h45.07.485,arm3_eps,2022.2.5,MacIntel,59.59475566,5eda9e891e6ee06df48c4b57,64c7fed44a04f777bb1e18ce,64c8012108c3a5ffeacf73f0,right,1,0.75,0.3714,2,0.046218014,0.199,,,,,,27,0,27,0,1,,,,,
,,984820,001,2023-07-31_20h45.07.485,arm3_eps,2022.2.5,MacIntel,59.59475566,5eda9e891e6ee06df48c4b57,64c7fed44a04f777bb1e18ce,64c8012108c3a5ffeacf73f0,right,1,0.75,0.3714,2,0.051527817,0.181,,,,,,28,0,28,0,1,,,,,
,,984820,001,2023-07-31_20h45.07.485,arm3_eps,2022.2.5,MacIntel,59.59475566,5eda9e891e6ee06df48c4b57,64c7fed44a04f777bb1e18ce,64c8012108c3a5ffeacf73f0,right,1,0.75,0.3714,2,0.061400814,0.182,,,,,,29,0,29,0,1,,,,,
,,984820,001,2023-07-31_20h45.07.485,arm3_eps,2022.2.5,MacIntel,59.59475566,5eda9e891e6ee06df48c4b57,64c7fed44a04f777bb1e18ce,64c8012108c3a5ffeacf73f0,right,1,0.75,0.3714,2,0.060675064,0.165,,,,,,30,0,30,0,1,,,,,
,,984820,001,2023-07-31_20h45.07.485,arm3_eps,2022.2.5,MacIntel,59.59475566,5eda9e891e6ee06df48c4b57,64c7fed44a04f777bb1e18ce,64c8012108c3a5ffeacf73f0,right,1,0.75,0.3714,2,0.05516542,0.151,,,,,,31,0,31,0,1,,,,,
,,984820,001,2023-07-31_20h45.07.485,arm3_eps,2022.2.5,MacIntel,59.59475566,5eda9e891e6ee06df48c4b57,64c7fed44a04f777bb1e18ce,64c8012108c3a5ffeacf73f0,right,1,0.75,0.3714,2,0.085546131,0.181,,,,,,32,0,32,0,1,,,,,
,,984820,001,2023-07-31_20h45.07.485,arm3_eps,2022.2.5,MacIntel,59.59475566,5eda9e891e6ee06df48c4b57,64c7fed44a04f777bb1e18ce,64c8012108c3a5ffeacf73f0,right,1,0.75,0.3714,2,0.091808246,0.148,,,,,,33,0,33,0,1,,,,,
,,984820,001,2023-07-31_20h45.07.485,arm3_eps,2022.2.5,MacIntel,59.59475566,5eda9e891e6ee06df48c4b57,64c7fed44a04f777bb1e18ce,64c8012108c3a5ffeacf73f0,right,1,0.75,0.3714,2,0.075059344,0.167,,,,,,34,0,34,0,1,,,,,
,,984820,001,2023-07-31_20h45.07.485,arm3_eps,2022.2.5,MacIntel,59.59475566,5eda9e891e6ee06df48c4b57,64c7fed44a04f777bb1e18ce,64c8012108c3a5ffeacf73f0,right,1,0.75,0.3714,2,0.092531666,0.167,,,,,,35,0,35,0,1,,,,,
,,984820,001,2023-07-31_20h45.07.485,arm3_eps,2022.2.5,MacIntel,59.59475566,5eda9e891e6ee06df48c4b57,64c7fed44a04f777bb1e18ce,64c8012108c3a5ffeacf73f0,up,-1,0.75,0.3714,2,0,0.434,,,,,,36,0,36,0,1,,,,,
,,984820,001,2023-07-31_20h45.07.485,arm3_eps,2022.2.5,MacIntel,59.59475566,5eda9e891e6ee06df48c4b57,64c7fed44a04f777bb1e18ce,64c8012108c3a5ffeacf73f0,right,-1,0.75,0.3714,2,0.013374964,4.791,,,,,,37,0,37,0,1,,,,,
,,984820,001,2023-07-31_20h45.07.485,arm3_eps,2022.2.5,MacIntel,59.59475566,5eda9e891e6ee06df48c4b57,64c7fed44a04f777bb1e18ce,64c8012108c3a5ffeacf73f0,right,-1,0.75,0.3714,2,0.001628404,0.178,,,,,,38,0,38,0,1,,,,,
,,984820,001,2023-07-31_20h45.07.485,arm3_eps,2022.2.5,MacIntel,59.59475566,5eda9e891e6ee06df48c4b57,64c7fed44a04f777bb1e18ce,64c8012108c3a5ffeacf73f0,right,-1,0.75,0.3714,2,-0.031709103,0.177,,,,,,39,0,39,0,1,,,,,
,,984820,001,2023-07-31_20h45.07.485,arm3_eps,2022.2.5,MacIntel,59.59475566,5eda9e891e6ee06df48c4b57,64c7fed44a04f777bb1e18ce,64c8012108c3a5ffeacf73f0,right,-1,0.75,0.3714,2,-0.043363167,0.175,,,,,,40,0,40,0,1,,,,,
,,984820,001,2023-07-31_20h45.07.485,arm3_eps,2022.2.5,MacIntel,59.59475566,5eda9e891e6ee06df48c4b57,64c7fed44a04f777bb1e18ce,64c8012108c3a5ffeacf73f0,right,-1,0.75,0.3714,2,-0.009206051,0.185,,,,,,41,0,41,0,1,,,,,
,,984820,001,2023-07-31_20h45.07.485,arm3_eps,2022.2.5,MacIntel,59.59475566,5eda9e891e6ee06df48c4b57,64c7fed44a04f777bb1e18ce,64c8012108c3a5ffeacf73f0,right,-1,0.75,0.3714,2,-0.045893849,0.193,,,,,,42,0,42,0,1,,,,,
,,984820,001,2023-07-31_20h45.07.485,arm3_eps,2022.2.5,MacIntel,59.59475566,5eda9e891e6ee06df48c4b57,64c7fed44a04f777bb1e18ce,64c8012108c3a5ffeacf73f0,right,-1,0.75,0.3714,2,-0.04207386,0.156,,,,,,43,0,43,0,1,,,,,
,,984820,001,2023-07-31_20h45.07.485,arm3_eps,2022.2.5,MacIntel,59.59475566,5eda9e891e6ee06df48c4b57,64c7fed44a04f777bb1e18ce,64c8012108c3a5ffeacf73f0,right,-1,0.75,0.3714,2,-0.076063341,0.168,,,,,,44,0,44,0,1,,,,,
,,984820,001,2023-07-31_20h45.07.485,arm3_eps,2022.2.5,MacIntel,59.59475566,5eda9e891e6ee06df48c4b57,64c7fed44a04f777bb1e18ce,64c8012108c3a5ffeacf73f0,right,-1,0.75,0.3714,2,-0.095865099,0.159,,,,,,45,0,45,0,1,,,,,
,,984820,001,2023-07-31_20h45.07.485,arm3_eps,2022.2.5,MacIntel,59.59475566,5eda9e891e6ee06df48c4b57,64c7fed44a04f777bb1e18ce,64c8012108c3a5ffeacf73f0,down,-1,0.75,0.3714,3,0,0.605,,,,,,46,0,46,0,1,,,,,
,,984820,001,2023-07-31_20h45.07.485,arm3_eps,2022.2.5,MacIntel,59.59475566,5eda9e891e6ee06df48c4b57,64c7fed44a04f777bb1e18ce,64c8012108c3a5ffeacf73f0,right,-1,0.75,0.3714,3,-0.008304894,1.016,,,,,,47,0,47,0,1,,,,,
,,984820,001,2023-07-31_20h45.07.485,arm3_eps,2022.2.5,MacIntel,59.59475566,5eda9e891e6ee06df48c4b57,64c7fed44a04f777bb1e18ce,64c8012108c3a5ffeacf73f0,right,-1,0.75,0.3714,3,-0.022909303,0.208,,,,,,48,0,48,0,1,,,,,
,,984820,001,2023-07-31_20h45.07.485,arm3_eps,2022.2.5,MacIntel,59.59475566,5eda9e891e6ee06df48c4b57,64c7fed44a04f777bb1e18ce,64c8012108c3a5ffeacf73f0,right,-1,0.75,0.3714,3,-0.027757073,0.151,,,,,,49,0,49,0,1,,,,,
,,984820,001,2023-07-31_20h45.07.485,arm3_eps,2022.2.5,MacIntel,59.59475566,5eda9e891e6ee06df48c4b57,64c7fed44a04f777bb1e18ce,64c8012108c3a5ffeacf73f0,right,-1,0.75,0.3714,3,-0.051473238,0.185,,,,,,50,0,50,0,1,,,,,
,,984820,001,2023-07-31_20h45.07.485,arm3_eps,2022.2.5,MacIntel,59.59475566,5eda9e891e6ee06df48c4b57,64c7fed44a04f777bb1e18ce,64c8012108c3a5ffeacf73f0,right,-1,0.75,0.3714,3,-0.072572933,0.182,,,,,,51,0,51,0,1,,,,,
,,984820,001,2023-07-31_20h45.07.485,arm3_eps,2022.2.5,MacIntel,59.59475566,5eda9e891e6ee06df48c4b57,64c7fed44a04f777bb1e18ce,64c8012108c3a5ffeacf73f0,right,-1,0.75,0.3714,3,-0.087380465,0.185,,,,,,52,0,52,0,1,,,,,
,,984820,001,2023-07-31_20h45.07.485,arm3_eps,2022.2.5,MacIntel,59.59475566,5eda9e891e6ee06df48c4b57,64c7fed44a04f777bb1e18ce,64c8012108c3a5ffeacf73f0,right,-1,0.75,0.3714,3,-0.113781333,0.169,,,,,,53,0,53,0,1,,,,,
,,984820,001,2023-07-31_20h45.07.485,arm3_eps,2022.2.5,MacIntel,59.59475566,5eda9e891e6ee06df48c4b57,64c7fed44a04f777bb1e18ce,64c8012108c3a5ffeacf73f0,down,-1,0.75,0.3714,4,0,0.454,,,,,,54,0,54,0,1,,,,,
,,984820,001,2023-07-31_20h45.07.485,arm3_eps,2022.2.5,MacIntel,59.59475566,5eda9e891e6ee06df48c4b57,64c7fed44a04f777bb1e18ce,64c8012108c3a5ffeacf73f0,right,-1,0.75,0.3714,4,0.004178819,1.031,,,,,,55,0,55,0,1,,,,,
,,984820,001,2023-07-31_20h45.07.485,arm3_eps,2022.2.5,MacIntel,59.59475566,5eda9e891e6ee06df48c4b57,64c7fed44a04f777bb1e18ce,64c8012108c3a5ffeacf73f0,right,-1,0.75,0.3714,4,-0.007948093,0.201,,,,,,56,0,56,0,1,,,,,
,,984820,001,2023-07-31_20h45.07.485,arm3_eps,2022.2.5,MacIntel,59.59475566,5eda9e891e6ee06df48c4b57,64c7fed44a04f777bb1e18ce,64c8012108c3a5ffeacf73f0,right,-1,0.75,0.3714,4,-0.033910416,0.185,,,,,,57,0,57,0,1,,,,,
,,984820,001,2023-07-31_20h45.07.485,arm3_eps,2022.2.5,MacIntel,59.59475566,5eda9e891e6ee06df48c4b57,64c7fed44a04f777bb1e18ce,64c8012108c3a5ffeacf73f0,right,-1,0.75,0.3714,4,-0.035258886,0.168,,,,,,58,0,58,0,1,,,,,
,,984820,001,2023-07-31_20h45.07.485,arm3_eps,2022.2.5,MacIntel,59.59475566,5eda9e891e6ee06df48c4b57,64c7fed44a04f777bb1e18ce,64c8012108c3a5ffeacf73f0,right,-1,0.75,0.3714,4,-0.028491026,0.156,,,,,,59,0,59,0,1,,,,,
,,984820,001,2023-07-31_20h45.07.485,arm3_eps,2022.2.5,MacIntel,59.59475566,5eda9e891e6ee06df48c4b57,64c7fed44a04f777bb1e18ce,64c8012108c3a5ffeacf73f0,right,-1,0.75,0.3714,4,-0.062930351,0.185,,,,,,60,0,60,0,1,,,,,
,,984820,001,2023-07-31_20h45.07.485,arm3_eps,2022.2.5,MacIntel,59.59475566,5eda9e891e6ee06df48c4b57,64c7fed44a04f777bb1e18ce,64c8012108c3a5ffeacf73f0,right,-1,0.75,0.3714,4,-0.073070508,0.18,,,,,,61,0,61,0,1,,,,,
,,984820,001,2023-07-31_20h45.07.485,arm3_eps,2022.2.5,MacIntel,59.59475566,5eda9e891e6ee06df48c4b57,64c7fed44a04f777bb1e18ce,64c8012108c3a5ffeacf73f0,right,-1,0.75,0.3714,4,-0.07389363,0.153,,,,,,62,0,62,0,1,,,,,
,,984820,001,2023-07-31_20h45.07.485,arm3_eps,2022.2.5,MacIntel,59.59475566,5eda9e891e6ee06df48c4b57,64c7fed44a04f777bb1e18ce,64c8012108c3a5ffeacf73f0,right,-1,0.75,0.3714,4,-0.090866721,0.271,,,,,,63,0,63,0,1,,,,,
,,984820,001,2023-07-31_20h45.07.485,arm3_eps,2022.2.5,MacIntel,59.59475566,5eda9e891e6ee06df48c4b57,64c7fed44a04f777bb1e18ce,64c8012108c3a5ffeacf73f0,down,-1,0.75,0.3714,5,0,0.47,,,,,,64,0,64,0,1,,,,,
,,984820,001,2023-07-31_20h45.07.485,arm3_eps,2022.2.5,MacIntel,59.59475566,5eda9e891e6ee06df48c4b57,64c7fed44a04f777bb1e18ce,64c8012108c3a5ffeacf73f0,right,-1,0.75,0.3714,5,-0.013250514,0.989,,,,,,65,0,65,0,1,,,,,
,,984820,001,2023-07-31_20h45.07.485,arm3_eps,2022.2.5,MacIntel,59.59475566,5eda9e891e6ee06df48c4b57,64c7fed44a04f777bb1e18ce,64c8012108c3a5ffeacf73f0,right,-1,0.75,0.3714,5,-0.016724353,0.187,,,,,,66,0,66,0,1,,,,,
,,984820,001,2023-07-31_20h45.07.485,arm3_eps,2022.2.5,MacIntel,59.59475566,5eda9e891e6ee06df48c4b57,64c7fed44a04f777bb1e18ce,64c8012108c3a5ffeacf73f0,right,-1,0.75,0.3714,5,-0.006368351,0.183,,,,,,67,0,67,0,1,,,,,
,,984820,001,2023-07-31_20h45.07.485,arm3_eps,2022.2.5,MacIntel,59.59475566,5eda9e891e6ee06df48c4b57,64c7fed44a04f777bb1e18ce,64c8012108c3a5ffeacf73f0,right,-1,0.75,0.3714,5,-0.021772705,0.202,,,,,,68,0,68,0,1,,,,,
,,984820,001,2023-07-31_20h45.07.485,arm3_eps,2022.2.5,MacIntel,59.59475566,5eda9e891e6ee06df48c4b57,64c7fed44a04f777bb1e18ce,64c8012108c3a5ffeacf73f0,right,-1,0.75,0.3714,5,-0.061658206,0.169,,,,,,69,0,69,0,1,,,,,
,,984820,001,2023-07-31_20h45.07.485,arm3_eps,2022.2.5,MacIntel,59.59475566,5eda9e891e6ee06df48c4b57,64c7fed44a04f777bb1e18ce,64c8012108c3a5ffeacf73f0,right,-1,0.75,0.3714,5,-0.076456099,0.189,,,,,,70,0,70,0,1,,,,,
,,984820,001,2023-07-31_20h45.07.485,arm3_eps,2022.2.5,MacIntel,59.59475566,5eda9e891e6ee06df48c4b57,64c7fed44a04f777bb1e18ce,64c8012108c3a5ffeacf73f0,right,-1,0.75,0.3714,5,-0.117746967,0.184,,,,,,71,0,71,0,1,,,,,
,,984820,001,2023-07-31_20h45.07.485,arm3_eps,2022.2.5,MacIntel,59.59475566,5eda9e891e6ee06df48c4b57,64c7fed44a04f777bb1e18ce,64c8012108c3a5ffeacf73f0,right,-1,0.75,0.3714,5,-0.15134741,0.152,,,,,,72,0,72,0,1,,,,,
,,984820,001,2023-07-31_20h45.07.485,arm3_eps,2022.2.5,MacIntel,59.59475566,5eda9e891e6ee06df48c4b57,64c7fed44a04f777bb1e18ce,64c8012108c3a5ffeacf73f0,down,-1,0.75,0.3714,6,0,0.334,,,,,,73,0,73,0,1,,,,,
,,984820,001,2023-07-31_20h45.07.485,arm3_eps,2022.2.5,MacIntel,59.59475566,5eda9e891e6ee06df48c4b57,64c7fed44a04f777bb1e18ce,64c8012108c3a5ffeacf73f0,right,-1,0.75,0.3714,6,0.007758808,1.154,,,,,,74,0,74,0,1,,,,,
,,984820,001,2023-07-31_20h45.07.485,arm3_eps,2022.2.5,MacIntel,59.59475566,5eda9e891e6ee06df48c4b57,64c7fed44a04f777bb1e18ce,64c8012108c3a5ffeacf73f0,right,-1,0.75,0.3714,6,0.002302955,0.215,,,,,,75,0,75,0,1,,,,,
,,984820,001,2023-07-31_20h45.07.485,arm3_eps,2022.2.5,MacIntel,59.59475566,5eda9e891e6ee06df48c4b57,64c7fed44a04f777bb1e18ce,64c8012108c3a5ffeacf73f0,right,-1,0.75,0.3714,6,0.019476315,0.169,,,,,,76,0,76,0,1,,,,,
,,984820,001,2023-07-31_20h45.07.485,arm3_eps,2022.2.5,MacIntel,59.59475566,5eda9e891e6ee06df48c4b57,64c7fed44a04f777bb1e18ce,64c8012108c3a5ffeacf73f0,right,-1,0.75,0.3714,6,0.043452504,0.186,,,,,,77,0,77,0,1,,,,,
,,984820,001,2023-07-31_20h45.07.485,arm3_eps,2022.2.5,MacIntel,59.59475566,5eda9e891e6ee06df48c4b57,64c7fed44a04f777bb1e18ce,64c8012108c3a5ffeacf73f0,right,-1,0.75,0.3714,6,0.049415903,0.177,,,,,,78,0,78,0,1,,,,,
,,984820,001,2023-07-31_20h45.07.485,arm3_eps,2022.2.5,MacIntel,59.59475566,5eda9e891e6ee06df48c4b57,64c7fed44a04f777bb1e18ce,64c8012108c3a5ffeacf73f0,right,-1,0.75,0.3714,6,0.030411408,0.153,,,,,,79,0,79,0,1,,,,,
,,984820,001,2023-07-31_20h45.07.485,arm3_eps,2022.2.5,MacIntel,59.59475566,5eda9e891e6ee06df48c4b57,64c7fed44a04f777bb1e18ce,64c8012108c3a5ffeacf73f0,right,-1,0.75,0.3714,6,0.04101313,0.162,,,,,,80,0,80,0,1,,,,,
,,984820,001,2023-07-31_20h45.07.485,arm3_eps,2022.2.5,MacIntel,59.59475566,5eda9e891e6ee06df48c4b57,64c7fed44a04f777bb1e18ce,64c8012108c3a5ffeacf73f0,right,-1,0.75,0.3714,6,0.05536984,0.187,,,,,,81,0,81,0,1,,,,,
,,984820,001,2023-07-31_20h45.07.485,arm3_eps,2022.2.5,MacIntel,59.59475566,5eda9e891e6ee06df48c4b57,64c7fed44a04f777bb1e18ce,64c8012108c3a5ffeacf73f0,right,-1,0.75,0.3714,6,0.035648558,0.155,,,,,,82,0,82,0,1,,,,,
,,984820,001,2023-07-31_20h45.07.485,arm3_eps,2022.2.5,MacIntel,59.59475566,5eda9e891e6ee06df48c4b57,64c7fed44a04f777bb1e18ce,64c8012108c3a5ffeacf73f0,up,1,0.75,0.3714,5,0,0.431,,,,,,83,0,83,0,1,,,,,
,,984820,001,2023-07-31_20h45.07.485,arm3_eps,2022.2.5,MacIntel,59.59475566,5eda9e891e6ee06df48c4b57,64c7fed44a04f777bb1e18ce,64c8012108c3a5ffeacf73f0,right,1,0.75,0.3714,5,0.01229831,1.256,,,,,,84,0,84,0,1,,,,,
,,984820,001,2023-07-31_20h45.07.485,arm3_eps,2022.2.5,MacIntel,59.59475566,5eda9e891e6ee06df48c4b57,64c7fed44a04f777bb1e18ce,64c8012108c3a5ffeacf73f0,right,1,0.75,0.3714,5,0.034014881,0.171,,,,,,85,0,85,0,1,,,,,
,,984820,001,2023-07-31_20h45.07.485,arm3_eps,2022.2.5,MacIntel,59.59475566,5eda9e891e6ee06df48c4b57,64c7fed44a04f777bb1e18ce,64c8012108c3a5ffeacf73f0,right,1,0.75,0.3714,5,0.047046378,0.184,,,,,,86,0,86,0,1,,,,,
,,984820,001,2023-07-31_20h45.07.485,arm3_eps,2022.2.5,MacIntel,59.59475566,5eda9e891e6ee06df48c4b57,64c7fed44a04f777bb1e18ce,64c8012108c3a5ffeacf73f0,right,1,0.75,0.3714,5,0.04958057,0.183,,,,,,87,0,87,0,1,,,,,
,,984820,001,2023-07-31_20h45.07.485,arm3_eps,2022.2.5,MacIntel,59.59475566,5eda9e891e6ee06df48c4b57,64c7fed44a04f777bb1e18ce,64c8012108c3a5ffeacf73f0,right,1,0.75,0.3714,5,0.036716387,0.191,,,,,,88,0,88,0,1,,,,,
,,984820,001,2023-07-31_20h45.07.485,arm3_eps,2022.2.5,MacIntel,59.59475566,5eda9e891e6ee06df48c4b57,64c7fed44a04f777bb1e18ce,64c8012108c3a5ffeacf73f0,right,1,0.75,0.3714,5,0.016714497,0.169,,,,,,89,0,89,0,1,,,,,
,,984820,001,2023-07-31_20h45.07.485,arm3_eps,2022.2.5,MacIntel,59.59475566,5eda9e891e6ee06df48c4b57,64c7fed44a04f777bb1e18ce,64c8012108c3a5ffeacf73f0,right,1,0.75,0.3714,5,0.026242951,0.151,,,,,,90,0,90,0,1,,,,,
,,984820,001,2023-07-31_20h45.07.485,arm3_eps,2022.2.5,MacIntel,59.59475566,5eda9e891e6ee06df48c4b57,64c7fed44a04f777bb1e18ce,64c8012108c3a5ffeacf73f0,right,1,0.75,0.3714,5,7.67731E-05,0.19,,,,,,91,0,91,0,1,,,,,
,,984820,001,2023-07-31_20h45.07.485,arm3_eps,2022.2.5,MacIntel,59.59475566,5eda9e891e6ee06df48c4b57,64c7fed44a04f777bb1e18ce,64c8012108c3a5ffeacf73f0,right,1,0.75,0.3714,5,-0.02576233,0.185,,,,,,92,0,92,0,1,,,,,
,,984820,001,2023-07-31_20h45.07.485,arm3_eps,2022.2.5,MacIntel,59.59475566,5eda9e891e6ee06df48c4b57,64c7fed44a04f777bb1e18ce,64c8012108c3a5ffeacf73f0,right,1,0.75,0.3714,5,-0.018353202,0.168,,,,,,93,0,93,0,1,,,,,
,,984820,001,2023-07-31_20h45.07.485,arm3_eps,2022.2.5,MacIntel,59.59475566,5eda9e891e6ee06df48c4b57,64c7fed44a04f777bb1e18ce,64c8012108c3a5ffeacf73f0,right,1,0.75,0.3714,5,0.001854315,0.193,,,,,,94,0,94,0,1,,,,,
,,984820,001,2023-07-31_20h45.07.485,arm3_eps,2022.2.5,MacIntel,59.59475566,5eda9e891e6ee06df48c4b57,64c7fed44a04f777bb1e18ce,64c8012108c3a5ffeacf73f0,right,1,0.75,0.3714,5,0.02620382,0.246,,,,,,95,0,95,0,1,,,,,
,,984820,001,2023-07-31_20h45.07.485,arm3_eps,2022.2.5,MacIntel,59.59475566,5eda9e891e6ee06df48c4b57,64c7fed44a04f777bb1e18ce,64c8012108c3a5ffeacf73f0,up,1,0.75,0.3714,6,0,0.529,,,,,,96,0,96,0,1,,,,,
,,984820,001,2023-07-31_20h45.07.485,arm3_eps,2022.2.5,MacIntel,59.59475566,5eda9e891e6ee06df48c4b57,64c7fed44a04f777bb1e18ce,64c8012108c3a5ffeacf73f0,right,1,0.75,0.3714,6,0.019896125,0.93,,,,,,97,0,97,0,1,,,,,
,,984820,001,2023-07-31_20h45.07.485,arm3_eps,2022.2.5,MacIntel,59.59475566,5eda9e891e6ee06df48c4b57,64c7fed44a04f777bb1e18ce,64c8012108c3a5ffeacf73f0,right,1,0.75,0.3714,6,0.009484066,0.178,,,,,,98,0,98,0,1,,,,,
,,984820,001,2023-07-31_20h45.07.485,arm3_eps,2022.2.5,MacIntel,59.59475566,5eda9e891e6ee06df48c4b57,64c7fed44a04f777bb1e18ce,64c8012108c3a5ffeacf73f0,right,1,0.75,0.3714,6,0.018029097,0.187,,,,,,99,0,99,0,1,,,,,
,,984820,001,2023-07-31_20h45.07.485,arm3_eps,2022.2.5,MacIntel,59.59475566,5eda9e891e6ee06df48c4b57,64c7fed44a04f777bb1e18ce,64c8012108c3a5ffeacf73f0,right,1,0.75,0.3714,6,0.021705126,0.186,,,,,,100,0,100,0,1,,,,,
,,984820,001,2023-07-31_20h45.07.485,arm3_eps,2022.2.5,MacIntel,59.59475566,5eda9e891e6ee06df48c4b57,64c7fed44a04f777bb1e18ce,64c8012108c3a5ffeacf73f0,right,1,0.75,0.3714,6,0.014469178,0.206,,,,,,101,0,101,0,1,,,,,
,,984820,001,2023-07-31_20h45.07.485,arm3_eps,2022.2.5,MacIntel,59.59475566,5eda9e891e6ee06df48c4b57,64c7fed44a04f777bb1e18ce,64c8012108c3a5ffeacf73f0,right,1,0.75,0.3714,6,0.025433174,0.147,,,,,,102,0,102,0,1,,,,,
,,984820,001,2023-07-31_20h45.07.485,arm3_eps,2022.2.5,MacIntel,59.59475566,5eda9e891e6ee06df48c4b57,64c7fed44a04f777bb1e18ce,64c8012108c3a5ffeacf73f0,right,1,0.75,0.3714,6,0.086030521,0.175,,,,,,103,0,103,0,1,,,,,
,,984820,001,2023-07-31_20h45.07.485,arm3_eps,2022.2.5,MacIntel,59.59475566,5eda9e891e6ee06df48c4b57,64c7fed44a04f777bb1e18ce,64c8012108c3a5ffeacf73f0,right,1,0.75,0.3714,6,0.101595005,0.187,,,,,,104,0,104,0,1,,,,,
,,984820,001,2023-07-31_20h45.07.485,arm3_eps,2022.2.5,MacIntel,59.59475566,5eda9e891e6ee06df48c4b57,64c7fed44a04f777bb1e18ce,64c8012108c3a5ffeacf73f0,right,1,0.75,0.3714,6,0.096111318,0.189,,,,,,105,0,105,0,1,,,,,
,,984820,001,2023-07-31_20h45.07.485,arm3_eps,2022.2.5,MacIntel,59.59475566,5eda9e891e6ee06df48c4b57,64c7fed44a04f777bb1e18ce,64c8012108c3a5ffeacf73f0,right,1,0.75,0.3714,6,0.080993123,0.156,,,,,,106,0,106,0,1,,,,,
,,984820,001,2023-07-31_20h45.07.485,arm3_eps,2022.2.5,MacIntel,59.59475566,5eda9e891e6ee06df48c4b57,64c7fed44a04f777bb1e18ce,64c8012108c3a5ffeacf73f0,right,1,0.75,0.3714,6,0.088160392,0.169,,,,,,107,0,107,0,1,,,,,
,,984820,001,2023-07-31_20h45.07.485,arm3_eps,2022.2.5,MacIntel,59.59475566,5eda9e891e6ee06df48c4b57,64c7fed44a04f777bb1e18ce,64c8012108c3a5ffeacf73f0,up,1,0.75,0.3714,6,0,0.406,,,,,,108,0,108,0,1,,,,,
,,984820,001,2023-07-31_20h45.07.485,arm3_eps,2022.2.5,MacIntel,59.59475566,5eda9e891e6ee06df48c4b57,64c7fed44a04f777bb1e18ce,64c8012108c3a5ffeacf73f0,right,1,0.75,0.3714,6,0.030312598,1.209,,,,,,109,0,109,0,1,,,,,
,,984820,001,2023-07-31_20h45.07.485,arm3_eps,2022.2.5,MacIntel,59.59475566,5eda9e891e6ee06df48c4b57,64c7fed44a04f777bb1e18ce,64c8012108c3a5ffeacf73f0,right,1,0.75,0.3714,6,0.042755217,0.188,,,,,,110,0,110,0,1,,,,,
,,984820,001,2023-07-31_20h45.07.485,arm3_eps,2022.2.5,MacIntel,59.59475566,5eda9e891e6ee06df48c4b57,64c7fed44a04f777bb1e18ce,64c8012108c3a5ffeacf73f0,right,1,0.75,0.3714,6,0.053186212,0.169,,,,,,111,0,111,0,1,,,,,
,,984820,001,2023-07-31_20h45.07.485,arm3_eps,2022.2.5,MacIntel,59.59475566,5eda9e891e6ee06df48c4b57,64c7fed44a04f777bb1e18ce,64c8012108c3a5ffeacf73f0,right,1,0.75,0.3714,6,0.041371763,0.181,,,,,,112,0,112,0,1,,,,,
,,984820,001,2023-07-31_20h45.07.485,arm3_eps,2022.2.5,MacIntel,59.59475566,5eda9e891e6ee06df48c4b57,64c7fed44a04f777bb1e18ce,64c8012108c3a5ffeacf73f0,right,1,0.75,0.3714,6,0.036901003,0.189,,,,,,113,0,113,0,1,,,,,
,,984820,001,2023-07-31_20h45.07.485,arm3_eps,2022.2.5,MacIntel,59.59475566,5eda9e891e6ee06df48c4b57,64c7fed44a04f777bb1e18ce,64c8012108c3a5ffeacf73f0,right,1,0.75,0.3714,6,0.033769116,0.186,,,,,,114,0,114,0,1,,,,,
,,984820,001,2023-07-31_20h45.07.485,arm3_eps,2022.2.5,MacIntel,59.59475566,5eda9e891e6ee06df48c4b57,64c7fed44a04f777bb1e18ce,64c8012108c3a5ffeacf73f0,right,1,0.75,0.3714,6,0.052517863,0.169,,,,,,115,0,115,0,1,,,,,
,,984820,001,2023-07-31_20h45.07.485,arm3_eps,2022.2.5,MacIntel,59.59475566,5eda9e891e6ee06df48c4b57,64c7fed44a04f777bb1e18ce,64c8012108c3a5ffeacf73f0,right,1,0.75,0.3714,6,0.062141618,0.171,,,,,,116,0,116,0,1,,,,,
,,984820,001,2023-07-31_20h45.07.485,arm3_eps,2022.2.5,MacIntel,59.59475566,5eda9e891e6ee06df48c4b57,64c7fed44a04f777bb1e18ce,64c8012108c3a5ffeacf73f0,right,1,0.75,0.3714,6,0.060662211,0.201,,,,,,117,0,117,0,1,,,,,
,,984820,001,2023-07-31_20h45.07.485,arm3_eps,2022.2.5,MacIntel,59.59475566,5eda9e891e6ee06df48c4b57,64c7fed44a04f777bb1e18ce,64c8012108c3a5ffeacf73f0,right,1,0.75,0.3714,6,0.086106366,0.144,,,,,,118,0,118,0,1,,,,,
,,984820,001,2023-07-31_20h45.07.485,arm3_eps,2022.2.5,MacIntel,59.59475566,5eda9e891e6ee06df48c4b57,64c7fed44a04f777bb1e18ce,64c8012108c3a5ffeacf73f0,right,1,0.75,0.3714,6,0.080480392,0.186,,,,,,119,0,119,0,1,,,,,
,,984820,001,2023-07-31_20h45.07.485,arm3_eps,2022.2.5,MacIntel,59.59475566,5eda9e891e6ee06df48c4b57,64c7fed44a04f777bb1e18ce,64c8012108c3a5ffeacf73f0,up,-1,0.75,0.3714,7,0,0.401,,,,,,120,0,120,0,1,,,,,
,,984820,001,2023-07-31_20h45.07.485,arm3_eps,2022.2.5,MacIntel,59.59475566,5eda9e891e6ee06df48c4b57,64c7fed44a04f777bb1e18ce,64c8012108c3a5ffeacf73f0,right,-1,0.75,0.3714,7,0.024396216,1.143,,,,,,121,0,121,0,1,,,,,
,,984820,001,2023-07-31_20h45.07.485,arm3_eps,2022.2.5,MacIntel,59.59475566,5eda9e891e6ee06df48c4b57,64c7fed44a04f777bb1e18ce,64c8012108c3a5ffeacf73f0,right,-1,0.75,0.3714,7,0.010282538,0.148,,,,,,122,0,122,0,1,,,,,
,,984820,001,2023-07-31_20h45.07.485,arm3_eps,2022.2.5,MacIntel,59.59475566,5eda9e891e6ee06df48c4b57,64c7fed44a04f777bb1e18ce,64c8012108c3a5ffeacf73f0,right,-1,0.75,0.3714,7,0.008276716,0.174,,,,,,123,0,123,0,1,,,,,
,,984820,001,2023-07-31_20h45.07.485,arm3_eps,2022.2.5,MacIntel,59.59475566,5eda9e891e6ee06df48c4b57,64c7fed44a04f777bb1e18ce,64c8012108c3a5ffeacf73f0,right,-1,0.75,0.3714,7,-0.011741965,0.169,,,,,,124,0,124,0,1,,,,,
,,984820,001,2023-07-31_20h45.07.485,arm3_eps,2022.2.5,MacIntel,59.59475566,5eda9e891e6ee06df48c4b57,64c7fed44a04f777bb1e18ce,64c8012108c3a5ffeacf73f0,right,-1,0.75,0.3714,7,-0.029405965,0.183,,,,,,125,0,125,0,1,,,,,
,,984820,001,2023-07-31_20h45.07.485,arm3_eps,2022.2.5,MacIntel,59.59475566,5eda9e891e6ee06df48c4b57,64c7fed44a04f777bb1e18ce,64c8012108c3a5ffeacf73f0,right,-1,0.75,0.3714,7,-0.037417642,0.165,,,,,,126,0,126,0,1,,,,,
,,984820,001,2023-07-31_20h45.07.485,arm3_eps,2022.2.5,MacIntel,59.59475566,5eda9e891e6ee06df48c4b57,64c7fed44a04f777bb1e18ce,64c8012108c3a5ffeacf73f0,right,-1,0.75,0.3714,7,-0.064898566,0.205,,,,,,127,0,127,0,1,,,,,
,,984820,001,2023-07-31_20h45.07.485,arm3_eps,2022.2.5,MacIntel,59.59475566,5eda9e891e6ee06df48c4b57,64c7fed44a04f777bb1e18ce,64c8012108c3a5ffeacf73f0,right,-1,0.75,0.3714,7,-0.097605292,0.185,,,,,,128,0,128,0,1,,,,,
,,984820,001,2023-07-31_20h45.07.485,arm3_eps,2022.2.5,MacIntel,59.59475566,5eda9e891e6ee06df48c4b57,64c7fed44a04f777bb1e18ce,64c8012108c3a5ffeacf73f0,down,1,0.75,0.3714,7,0,0.517,,,,,,129,0,129,0,1,,,,,
,,984820,001,2023-07-31_20h45.07.485,arm3_eps,2022.2.5,MacIntel,59.59475566,5eda9e891e6ee06df48c4b57,64c7fed44a04f777bb1e18ce,64c8012108c3a5ffeacf73f0,right,1,0.75,0.3714,7,-0.002405417,1.655,,,,,,130,0,130,0,1,,,,,
,,984820,001,2023-07-31_20h45.07.485,arm3_eps,2022.2.5,MacIntel,59.59475566,5eda9e891e6ee06df48c4b57,64c7fed44a04f777bb1e18ce,64c8012108c3a5ffeacf73f0,right,1,0.75,0.3714,7,0.010166722,0.184,,,,,,131,0,131,0,1,,,,,
,,984820,001,2023-07-31_20h45.07.485,arm3_eps,2022.2.5,MacIntel,59.59475566,5eda9e891e6ee06df48c4b57,64c7fed44a04f777bb1e18ce,64c8012108c3a5ffeacf73f0,right,1,0.75,0.3714,7,0.043425585,0.174,,,,,,132,0,132,0,1,,,,,
,,984820,001,2023-07-31_20h45.07.485,arm3_eps,2022.2.5,MacIntel,59.59475566,5eda9e891e6ee06df48c4b57,64c7fed44a04f777bb1e18ce,64c8012108c3a5ffeacf73f0,right,1,0.75,0.3714,7,0.038402347,0.203,,,,,,133,0,133,0,1,,,,,
,,984820,001,2023-07-31_20h45.07.485,arm3_eps,2022.2.5,MacIntel,59.59475566,5eda9e891e6ee06df48c4b57,64c7fed44a04f777bb1e18ce,64c8012108c3a5ffeacf73f0,right,1,0.75,0.3714,7,0.058224691,0.204,,,,,,134,0,134,0,1,,,,,
,,984820,001,2023-07-31_20h45.07.485,arm3_eps,2022.2.5,MacIntel,59.59475566,5eda9e891e6ee06df48c4b57,64c7fed44a04f777bb1e18ce,64c8012108c3a5ffeacf73f0,right,1,0.75,0.3714,7,0.040919111,0.183,,,,,,135,0,135,0,1,,,,,
,,984820,001,2023-07-31_20h45.07.485,arm3_eps,2022.2.5,MacIntel,59.59475566,5eda9e891e6ee06df48c4b57,64c7fed44a04f777bb1e18ce,64c8012108c3a5ffeacf73f0,right,1,0.75,0.3714,7,0.019812136,0.169,,,,,,136,0,136,0,1,,,,,
,,984820,001,2023-07-31_20h45.07.485,arm3_eps,2022.2.5,MacIntel,59.59475566,5eda9e891e6ee06df48c4b57,64c7fed44a04f777bb1e18ce,64c8012108c3a5ffeacf73f0,right,1,0.75,0.3714,7,0.014219083,0.186,,,,,,137,0,137,0,1,,,,,
,,984820,001,2023-07-31_20h45.07.485,arm3_eps,2022.2.5,MacIntel,59.59475566,5eda9e891e6ee06df48c4b57,64c7fed44a04f777bb1e18ce,64c8012108c3a5ffeacf73f0,right,1,0.75,0.3714,7,0.067851619,0.183,,,,,,138,0,138,0,1,,,,,
,,984820,001,2023-07-31_20h45.07.485,arm3_eps,2022.2.5,MacIntel,59.59475566,5eda9e891e6ee06df48c4b57,64c7fed44a04f777bb1e18ce,64c8012108c3a5ffeacf73f0,right,1,0.75,0.3714,7,0.080119568,0.202,,,,,,139,0,139,0,1,,,,,
,,984820,001,2023-07-31_20h45.07.485,arm3_eps,2022.2.5,MacIntel,59.59475566,5eda9e891e6ee06df48c4b57,64c7fed44a04f777bb1e18ce,64c8012108c3a5ffeacf73f0,right,1,0.75,0.3714,7,0.072696498,0.236,,,,,,140,0,140,0,1,,,,,
,,984820,001,2023-07-31_20h45.07.485,arm3_eps,2022.2.5,MacIntel,59.59475566,5eda9e891e6ee06df48c4b57,64c7fed44a04f777bb1e18ce,64c8012108c3a5ffeacf73f0,up,-1,0.75,0.3714,7,0,0.491,,,,,,141,0,141,0,1,,,,,
,,984820,001,2023-07-31_20h45.07.485,arm3_eps,2022.2.5,MacIntel,59.59475566,5eda9e891e6ee06df48c4b57,64c7fed44a04f777bb1e18ce,64c8012108c3a5ffeacf73f0,right,-1,0.75,0.3714,7,-0.008134139,1.274,,,,,,142,0,142,0,1,,,,,
,,984820,001,2023-07-31_20h45.07.485,arm3_eps,2022.2.5,MacIntel,59.59475566,5eda9e891e6ee06df48c4b57,64c7fed44a04f777bb1e18ce,64c8012108c3a5ffeacf73f0,right,-1,0.75,0.3714,7,-0.00674158,0.184,,,,,,143,0,143,0,1,,,,,
,,984820,001,2023-07-31_20h45.07.485,arm3_eps,2022.2.5,MacIntel,59.59475566,5eda9e891e6ee06df48c4b57,64c7fed44a04f777bb1e18ce,64c8012108c3a5ffeacf73f0,right,-1,0.75,0.3714,7,-0.028707202,0.173,,,,,,144,0,144,0,1,,,,,
,,984820,001,2023-07-31_20h45.07.485,arm3_eps,2022.2.5,MacIntel,59.59475566,5eda9e891e6ee06df48c4b57,64c7fed44a04f777bb1e18ce,64c8012108c3a5ffeacf73f0,right,-1,0.75,0.3714,7,-0.048191827,0.173,,,,,,145,0,145,0,1,,,,,
,,984820,001,2023-07-31_20h45.07.485,arm3_eps,2022.2.5,MacIntel,59.59475566,5eda9e891e6ee06df48c4b57,64c7fed44a04f777bb1e18ce,64c8012108c3a5ffeacf73f0,right,-1,0.75,0.3714,7,-0.059766852,0.183,,,,,,146,0,146,0,1,,,,,
,,984820,001,2023-07-31_20h45.07.485,arm3_eps,2022.2.5,MacIntel,59.59475566,5eda9e891e6ee06df48c4b57,64c7fed44a04f777bb1e18ce,64c8012108c3a5ffeacf73f0,right,-1,0.75,0.3714,7,-0.063230952,0.173,,,,,,147,0,147,0,1,,,,,
,,984820,001,2023-07-31_20h45.07.485,arm3_eps,2022.2.5,MacIntel,59.59475566,5eda9e891e6ee06df48c4b57,64c7fed44a04f777bb1e18ce,64c8012108c3a5ffeacf73f0,right,-1,0.75,0.3714,7,-0.056404274,0.175,,,,,,148,0,148,0,1,,,,,
,,984820,001,2023-07-31_20h45.07.485,arm3_eps,2022.2.5,MacIntel,59.59475566,5eda9e891e6ee06df48c4b57,64c7fed44a04f777bb1e18ce,64c8012108c3a5ffeacf73f0,right,-1,0.75,0.3714,7,-0.066126301,0.183,,,,,,149,0,149,0,1,,,,,
,,984820,001,2023-07-31_20h45.07.485,arm3_eps,2022.2.5,MacIntel,59.59475566,5eda9e891e6ee06df48c4b57,64c7fed44a04f777bb1e18ce,64c8012108c3a5ffeacf73f0,right,-1,0.75,0.3714,7,-0.05550786,0.167,,,,,,150,0,150,0,1,,,,,
,,984820,001,2023-07-31_20h45.07.485,arm3_eps,2022.2.5,MacIntel,59.59475566,5eda9e891e6ee06df48c4b57,64c7fed44a04f777bb1e18ce,64c8012108c3a5ffeacf73f0,right,-1,0.75,0.3714,7,-0.052445742,0.436,,,,,,151,0,151,0,1,,,,,
,,984820,001,2023-07-31_20h45.07.485,arm3_eps,2022.2.5,MacIntel,59.59475566,5eda9e891e6ee06df48c4b57,64c7fed44a04f777bb1e18ce,64c8012108c3a5ffeacf73f0,right,-1,0.75,0.3714,7,-0.037792872,0.402,,,,,,152,0,152,0,1,,,,,
,,984820,001,2023-07-31_20h45.07.485,arm3_eps,2022.2.5,MacIntel,59.59475566,5eda9e891e6ee06df48c4b57,64c7fed44a04f777bb1e18ce,64c8012108c3a5ffeacf73f0,right,-1,0.75,0.3714,7,-0.025023234,0.8,,,,,,153,0,153,0,1,,,,,
,,984820,001,2023-07-31_20h45.07.485,arm3_eps,2022.2.5,MacIntel,59.59475566,5eda9e891e6ee06df48c4b57,64c7fed44a04f777bb1e18ce,64c8012108c3a5ffeacf73f0,down,1,0.75,0.3714,8,0,0.999,,,,,,154,0,154,0,1,,,,,
,,984820,001,2023-07-31_20h45.07.485,arm3_eps,2022.2.5,MacIntel,59.59475566,5eda9e891e6ee06df48c4b57,64c7fed44a04f777bb1e18ce,64c8012108c3a5ffeacf73f0,right,1,0.75,0.3714,8,-0.009768045,0.954,,,,,,155,0,155,0,1,,,,,
,,984820,001,2023-07-31_20h45.07.485,arm3_eps,2022.2.5,MacIntel,59.59475566,5eda9e891e6ee06df48c4b57,64c7fed44a04f777bb1e18ce,64c8012108c3a5ffeacf73f0,right,1,0.75,0.3714,8,0.011081325,0.176,,,,,,156,0,156,0,1,,,,,
,,984820,001,2023-07-31_20h45.07.485,arm3_eps,2022.2.5,MacIntel,59.59475566,5eda9e891e6ee06df48c4b57,64c7fed44a04f777bb1e18ce,64c8012108c3a5ffeacf73f0,right,1,0.75,0.3714,8,0.009986399,0.186,,,,,,157,0,157,0,1,,,,,
,,984820,001,2023-07-31_20h45.07.485,arm3_eps,2022.2.5,MacIntel,59.59475566,5eda9e891e6ee06df48c4b57,64c7fed44a04f777bb1e18ce,64c8012108c3a5ffeacf73f0,right,1,0.75,0.3714,8,0.028793252,0.203,,,,,,158,0,158,0,1,,,,,
,,984820,001,2023-07-31_20h45.07.485,arm3_eps,2022.2.5,MacIntel,59.59475566,5eda9e891e6ee06df48c4b57,64c7fed44a04f777bb1e18ce,64c8012108c3a5ffeacf73f0,right,1,0.75,0.3714,8,0.080841365,0.17,,,,,,159,0,159,0,1,,,,,
,,984820,001,2023-07-31_20h45.07.485,arm3_eps,2022.2.5,MacIntel,59.59475566,5eda9e891e6ee06df48c4b57,64c7fed44a04f777bb1e18ce,64c8012108c3a5ffeacf73f0,right,1,0.75,0.3714,8,0.074520385,0.181,,,,,,160,0,160,0,1,,,,,
,,984820,001,2023-07-31_20h45.07.485,arm3_eps,2022.2.5,MacIntel,59.59475566,5eda9e891e6ee06df48c4b57,64c7fed44a04f777bb1e18ce,64c8012108c3a5ffeacf73f0,right,1,0.75,0.3714,8,0.0834186,0.189,,,,,,161,0,161,0,1,,,,,
,,984820,001,2023-07-31_20h45.07.485,arm3_eps,2022.2.5,MacIntel,59.59475566,5eda9e891e6ee06df48c4b57,64c7fed44a04f777bb1e18ce,64c8012108c3a5ffeacf73f0,right,1,0.75,0.3714,8,0.116982273,0.169,,,,,,162,0,162,0,1,,,,,
,,984820,001,2023-07-31_20h45.07.485,arm3_eps,2022.2.5,MacIntel,59.59475566,5eda9e891e6ee06df48c4b57,64c7fed44a04f777bb1e18ce,64c8012108c3a5ffeacf73f0,right,1,0.75,0.3714,8,0.15201179,0.157,,,,,,163,0,163,0,1,,,,,
,,984820,001,2023-07-31_20h45.07.485,arm3_eps,2022.2.5,MacIntel,59.59475566,5eda9e891e6ee06df48c4b57,64c7fed44a04f777bb1e18ce,64c8012108c3a5ffeacf73f0,right,1,0.75,0.3714,8,0.172907728,0.169,,,,,,164,0,164,0,1,,,,,
,,984820,001,2023-07-31_20h45.07.485,arm3_eps,2022.2.5,MacIntel,59.59475566,5eda9e891e6ee06df48c4b57,64c7fed44a04f777bb1e18ce,64c8012108c3a5ffeacf73f0,up,1,0.75,0.3714,9,0,0.308,,,,,,165,0,165,0,1,,,,,
,,984820,001,2023-07-31_20h45.07.485,arm3_eps,2022.2.5,MacIntel,59.59475566,5eda9e891e6ee06df48c4b57,64c7fed44a04f777bb1e18ce,64c8012108c3a5ffeacf73f0,right,1,0.75,0.3714,9,0.009746888,0.978,,,,,,166,0,166,0,1,,,,,
,,984820,001,2023-07-31_20h45.07.485,arm3_eps,2022.2.5,MacIntel,59.59475566,5eda9e891e6ee06df48c4b57,64c7fed44a04f777bb1e18ce,64c8012108c3a5ffeacf73f0,right,1,0.75,0.3714,9,0.029606892,0.173,,,,,,167,0,167,0,1,,,,,
,,984820,001,2023-07-31_20h45.07.485,arm3_eps,2022.2.5,MacIntel,59.59475566,5eda9e891e6ee06df48c4b57,64c7fed44a04f777bb1e18ce,64c8012108c3a5ffeacf73f0,right,1,0.75,0.3714,9,0.032132956,0.169,,,,,,168,0,168,0,1,,,,,
,,984820,001,2023-07-31_20h45.07.485,arm3_eps,2022.2.5,MacIntel,59.59475566,5eda9e891e6ee06df48c4b57,64c7fed44a04f777bb1e18ce,64c8012108c3a5ffeacf73f0,right,1,0.75,0.3714,9,0.000533036,0.163,,,,,,169,0,169,0,1,,,,,
,,984820,001,2023-07-31_20h45.07.485,arm3_eps,2022.2.5,MacIntel,59.59475566,5eda9e891e6ee06df48c4b57,64c7fed44a04f777bb1e18ce,64c8012108c3a5ffeacf73f0,right,1,0.75,0.3714,9,0.034093902,0.17,,,,,,170,0,170,0,1,,,,,
,,984820,001,2023-07-31_20h45.07.485,arm3_eps,2022.2.5,MacIntel,59.59475566,5eda9e891e6ee06df48c4b57,64c7fed44a04f777bb1e18ce,64c8012108c3a5ffeacf73f0,right,1,0.75,0.3714,9,0.059787346,0.169,,,,,,171,0,171,0,1,,,,,
,,984820,001,2023-07-31_20h45.07.485,arm3_eps,2022.2.5,MacIntel,59.59475566,5eda9e891e6ee06df48c4b57,64c7fed44a04f777bb1e18ce,64c8012108c3a5ffeacf73f0,right,1,0.75,0.3714,9,0.057443316,0.172,,,,,,172,0,172,0,1,,,,,
,,984820,001,2023-07-31_20h45.07.485,arm3_eps,2022.2.5,MacIntel,59.59475566,5eda9e891e6ee06df48c4b57,64c7fed44a04f777bb1e18ce,64c8012108c3a5ffeacf73f0,right,1,0.75,0.3714,9,0.059797454,0.137,,,,,,173,0,173,0,1,,,,,
,,984820,001,2023-07-31_20h45.07.485,arm3_eps,2022.2.5,MacIntel,59.59475566,5eda9e891e6ee06df48c4b57,64c7fed44a04f777bb1e18ce,64c8012108c3a5ffeacf73f0,right,1,0.75,0.3714,9,0.053276762,0.169,,,,,,174,0,174,0,1,,,,,
,,984820,001,2023-07-31_20h45.07.485,arm3_eps,2022.2.5,MacIntel,59.59475566,5eda9e891e6ee06df48c4b57,64c7fed44a04f777bb1e18ce,64c8012108c3a5ffeacf73f0,right,1,0.75,0.3714,9,0.066206583,0.173,,,,,,175,0,175,0,1,,,,,
,,984820,001,2023-07-31_20h45.07.485,arm3_eps,2022.2.5,MacIntel,59.59475566,5eda9e891e6ee06df48c4b57,64c7fed44a04f777bb1e18ce,64c8012108c3a5ffeacf73f0,right,1,0.75,0.3714,9,0.057813761,0.134,,,,,,176,0,176,0,1,,,,,
,,984820,001,2023-07-31_20h45.07.485,arm3_eps,2022.2.5,MacIntel,59.59475566,5eda9e891e6ee06df48c4b57,64c7fed44a04f777bb1e18ce,64c8012108c3a5ffeacf73f0,right,1,0.75,0.3714,9,0.069491641,0.152,,,,,,177,0,177,0,1,,,,,
,,984820,001,2023-07-31_20h45.07.485,arm3_eps,2022.2.5,MacIntel,59.59475566,5eda9e891e6ee06df48c4b57,64c7fed44a04f777bb1e18ce,64c8012108c3a5ffeacf73f0,up,1,0.75,0.3714,10,0,0.485,,,,,,178,0,178,0,1,,,,,
,,984820,001,2023-07-31_20h45.07.485,arm3_eps,2022.2.5,MacIntel,59.59475566,5eda9e891e6ee06df48c4b57,64c7fed44a04f777bb1e18ce,64c8012108c3a5ffeacf73f0,right,1,0.75,0.3714,10,0.00069659,1.75,,,,,,179,0,179,0,1,,,,,
,,984820,001,2023-07-31_20h45.07.485,arm3_eps,2022.2.5,MacIntel,59.59475566,5eda9e891e6ee06df48c4b57,64c7fed44a04f777bb1e18ce,64c8012108c3a5ffeacf73f0,right,1,0.75,0.3714,10,0.017558482,0.152,,,,,,180,0,180,0,1,,,,,
,,984820,001,2023-07-31_20h45.07.485,arm3_eps,2022.2.5,MacIntel,59.59475566,5eda9e891e6ee06df48c4b57,64c7fed44a04f777bb1e18ce,64c8012108c3a5ffeacf73f0,right,1,0.75,0.3714,10,0.054435521,0.217,,,,,,181,0,181,0,1,,,,,
,,984820,001,2023-07-31_20h45.07.485,arm3_eps,2022.2.5,MacIntel,59.59475566,5eda9e891e6ee06df48c4b57,64c7fed44a04f777bb1e18ce,64c8012108c3a5ffeacf73f0,right,1,0.75,0.3714,10,0.037873236,0.167,,,,,,182,0,182,0,1,,,,,
,,984820,001,2023-07-31_20h45.07.485,arm3_eps,2022.2.5,MacIntel,59.59475566,5eda9e891e6ee06df48c4b57,64c7fed44a04f777bb1e18ce,64c8012108c3a5ffeacf73f0,right,1,0.75,0.3714,10,0.020411983,0.187,,,,,,183,0,183,0,1,,,,,
,,984820,001,2023-07-31_20h45.07.485,arm3_eps,2022.2.5,MacIntel,59.59475566,5eda9e891e6ee06df48c4b57,64c7fed44a04f777bb1e18ce,64c8012108c3a5ffeacf73f0,right,1,0.75,0.3714,10,0.035252474,0.188,,,,,,184,0,184,0,1,,,,,
,,984820,001,2023-07-31_20h45.07.485,arm3_eps,2022.2.5,MacIntel,59.59475566,5eda9e891e6ee06df48c4b57,64c7fed44a04f777bb1e18ce,64c8012108c3a5ffeacf73f0,right,1,0.75,0.3714,10,0.032768182,0.185,,,,,,185,0,185,0,1,,,,,
,,984820,001,2023-07-31_20h45.07.485,arm3_eps,2022.2.5,MacIntel,59.59475566,5eda9e891e6ee06df48c4b57,64c7fed44a04f777bb1e18ce,64c8012108c3a5ffeacf73f0,right,1,0.75,0.3714,10,0.058387474,0.17,,,,,,186,0,186,0,1,,,,,
,,984820,001,2023-07-31_20h45.07.485,arm3_eps,2022.2.5,MacIntel,59.59475566,5eda9e891e6ee06df48c4b57,64c7fed44a04f777bb1e18ce,64c8012108c3a5ffeacf73f0,right,1,0.75,0.3714,10,0.093207259,0.188,,,,,,187,0,187,0,1,,,,,
,,984820,001,2023-07-31_20h45.07.485,arm3_eps,2022.2.5,MacIntel,59.59475566,5eda9e891e6ee06df48c4b57,64c7fed44a04f777bb1e18ce,64c8012108c3a5ffeacf73f0,right,1,0.75,0.3714,10,0.069022436,0.167,,,,,,188,0,188,0,1,,,,,
,,984820,001,2023-07-31_20h45.07.485,arm3_eps,2022.2.5,MacIntel,59.59475566,5eda9e891e6ee06df48c4b57,64c7fed44a04f777bb1e18ce,64c8012108c3a5ffeacf73f0,right,1,0.75,0.3714,10,0.066783985,0.168,,,,,,189,0,189,0,1,,,,,
,,984820,001,2023-07-31_20h45.07.485,arm3_eps,2022.2.5,MacIntel,59.59475566,5eda9e891e6ee06df48c4b57,64c7fed44a04f777bb1e18ce,64c8012108c3a5ffeacf73f0,right,1,0.75,0.3714,10,0.081558209,0.183,,,,,,190,0,190,0,1,,,,,
,,984820,001,2023-07-31_20h45.07.485,arm3_eps,2022.2.5,MacIntel,59.59475566,5eda9e891e6ee06df48c4b57,64c7fed44a04f777bb1e18ce,64c8012108c3a5ffeacf73f0,up,-1,0.75,0.3714,11,0,0.352,,,,,,191,0,191,0,1,,,,,
,,984820,001,2023-07-31_20h45.07.485,arm3_eps,2022.2.5,MacIntel,59.59475566,5eda9e891e6ee06df48c4b57,64c7fed44a04f777bb1e18ce,64c8012108c3a5ffeacf73f0,right,-1,0.75,0.3714,11,-0.005919242,1.275,,,,,,192,0,192,0,1,,,,,
,,984820,001,2023-07-31_20h45.07.485,arm3_eps,2022.2.5,MacIntel,59.59475566,5eda9e891e6ee06df48c4b57,64c7fed44a04f777bb1e18ce,64c8012108c3a5ffeacf73f0,right,-1,0.75,0.3714,11,-0.015885684,0.188,,,,,,193,0,193,0,1,,,,,
,,984820,001,2023-07-31_20h45.07.485,arm3_eps,2022.2.5,MacIntel,59.59475566,5eda9e891e6ee06df48c4b57,64c7fed44a04f777bb1e18ce,64c8012108c3a5ffeacf73f0,right,-1,0.75,0.3714,11,-0.034944439,0.186,,,,,,194,0,194,0,1,,,,,
,,984820,001,2023-07-31_20h45.07.485,arm3_eps,2022.2.5,MacIntel,59.59475566,5eda9e891e6ee06df48c4b57,64c7fed44a04f777bb1e18ce,64c8012108c3a5ffeacf73f0,right,-1,0.75,0.3714,11,-0.054299094,0.183,,,,,,195,0,195,0,1,,,,,
,,984820,001,2023-07-31_20h45.07.485,arm3_eps,2022.2.5,MacIntel,59.59475566,5eda9e891e6ee06df48c4b57,64c7fed44a04f777bb1e18ce,64c8012108c3a5ffeacf73f0,right,-1,0.75,0.3714,11,-0.085771608,0.186,,,,,,196,0,196,0,1,,,,,
,,984820,001,2023-07-31_20h45.07.485,arm3_eps,2022.2.5,MacIntel,59.59475566,5eda9e891e6ee06df48c4b57,64c7fed44a04f777bb1e18ce,64c8012108c3a5ffeacf73f0,right,-1,0.75,0.3714,11,-0.081296527,0.167,,,,,,197,0,197,0,1,,,,,
,,984820,001,2023-07-31_20h45.07.485,arm3_eps,2022.2.5,MacIntel,59.59475566,5eda9e891e6ee06df48c4b57,64c7fed44a04f777bb1e18ce,64c8012108c3a5ffeacf73f0,right,-1,0.75,0.3714,11,-0.090481257,0.201,,,,,,198,0,198,0,1,,,,,
,,984820,001,2023-07-31_20h45.07.485,arm3_eps,2022.2.5,MacIntel,59.59475566,5eda9e891e6ee06df48c4b57,64c7fed44a04f777bb1e18ce,64c8012108c3a5ffeacf73f0,right,-1,0.75,0.3714,11,-0.074017706,0.168,,,,,,199,0,199,0,1,,,,,
,,984820,001,2023-07-31_20h45.07.485,arm3_eps,2022.2.5,MacIntel,59.59475566,5eda9e891e6ee06df48c4b57,64c7fed44a04f777bb1e18ce,64c8012108c3a5ffeacf73f0,right,-1,0.75,0.3714,11,-0.090258251,0.283,,,,,,200,0,200,0,1,,,,,
,,984820,001,2023-07-31_20h45.07.485,arm3_eps,2022.2.5,MacIntel,59.59475566,5eda9e891e6ee06df48c4b57,64c7fed44a04f777bb1e18ce,64c8012108c3a5ffeacf73f0,right,-1,0.75,0.3714,11,-0.116368507,0.206,,,,,,201,0,201,0,1,,,,,
,,984820,001,2023-07-31_20h45.07.485,arm3_eps,2022.2.5,MacIntel,59.59475566,5eda9e891e6ee06df48c4b57,64c7fed44a04f777bb1e18ce,64c8012108c3a5ffeacf73f0,down,-1,0.75,0.3714,12,0,0.373,,,,,,202,0,202,0,1,,,,,
,,984820,001,2023-07-31_20h45.07.485,arm3_eps,2022.2.5,MacIntel,59.59475566,5eda9e891e6ee06df48c4b57,64c7fed44a04f777bb1e18ce,64c8012108c3a5ffeacf73f0,right,-1,0.75,0.3714,12,-0.017271234,1.165,,,,,,203,0,203,0,1,,,,,
,,984820,001,2023-07-31_20h45.07.485,arm3_eps,2022.2.5,MacIntel,59.59475566,5eda9e891e6ee06df48c4b57,64c7fed44a04f777bb1e18ce,64c8012108c3a5ffeacf73f0,right,-1,0.75,0.3714,12,0.022720628,0.186,,,,,,204,0,204,0,1,,,,,
,,984820,001,2023-07-31_20h45.07.485,arm3_eps,2022.2.5,MacIntel,59.59475566,5eda9e891e6ee06df48c4b57,64c7fed44a04f777bb1e18ce,64c8012108c3a5ffeacf73f0,right,-1,0.75,0.3714,12,0.020829493,0.17,,,,,,205,0,205,0,1,,,,,
,,984820,001,2023-07-31_20h45.07.485,arm3_eps,2022.2.5,MacIntel,59.59475566,5eda9e891e6ee06df48c4b57,64c7fed44a04f777bb1e18ce,64c8012108c3a5ffeacf73f0,right,-1,0.75,0.3714,12,0.00388686,0.202,,,,,,206,0,206,0,1,,,,,
,,984820,001,2023-07-31_20h45.07.485,arm3_eps,2022.2.5,MacIntel,59.59475566,5eda9e891e6ee06df48c4b57,64c7fed44a04f777bb1e18ce,64c8012108c3a5ffeacf73f0,right,-1,0.75,0.3714,12,-0.044697208,0.182,,,,,,207,0,207,0,1,,,,,
,,984820,001,2023-07-31_20h45.07.485,arm3_eps,2022.2.5,MacIntel,59.59475566,5eda9e891e6ee06df48c4b57,64c7fed44a04f777bb1e18ce,64c8012108c3a5ffeacf73f0,right,-1,0.75,0.3714,12,-0.059889542,0.185,,,,,,208,0,208,0,1,,,,,
,,984820,001,2023-07-31_20h45.07.485,arm3_eps,2022.2.5,MacIntel,59.59475566,5eda9e891e6ee06df48c4b57,64c7fed44a04f777bb1e18ce,64c8012108c3a5ffeacf73f0,right,-1,0.75,0.3714,12,-0.044963462,0.552,,,,,,209,0,209,0,1,,,,,
,,984820,001,2023-07-31_20h45.07.485,arm3_eps,2022.2.5,MacIntel,59.59475566,5eda9e891e6ee06df48c4b57,64c7fed44a04f777bb1e18ce,64c8012108c3a5ffeacf73f0,right,-1,0.75,0.3714,12,-0.038934745,0.208,,,,,,210,0,210,0,1,,,,,
,,984820,001,2023-07-31_20h45.07.485,arm3_eps,2022.2.5,MacIntel,59.59475566,5eda9e891e6ee06df48c4b57,64c7fed44a04f777bb1e18ce,64c8012108c3a5ffeacf73f0,right,-1,0.75,0.3714,12,-0.023790764,0.185,,,,,,211,0,211,0,1,,,,,
,,984820,001,2023-07-31_20h45.07.485,arm3_eps,2022.2.5,MacIntel,59.59475566,5eda9e891e6ee06df48c4b57,64c7fed44a04f777bb1e18ce,64c8012108c3a5ffeacf73f0,right,-1,0.75,0.3714,12,-0.021486872,0.251,,,,,,212,0,212,0,1,,,,,
,,984820,001,2023-07-31_20h45.07.485,arm3_eps,2022.2.5,MacIntel,59.59475566,5eda9e891e6ee06df48c4b57,64c7fed44a04f777bb1e18ce,64c8012108c3a5ffeacf73f0,right,-1,0.75,0.3714,12,-0.008226058,0.218,,,,,,213,0,213,0,1,,,,,
,,984820,001,2023-07-31_20h45.07.485,arm3_eps,2022.2.5,MacIntel,59.59475566,5eda9e891e6ee06df48c4b57,64c7fed44a04f777bb1e18ce,64c8012108c3a5ffeacf73f0,right,-1,0.75,0.3714,12,-0.006445333,1.147,,,,,,214,0,214,0,1,,,,,
,,984820,001,2023-07-31_20h45.07.485,arm3_eps,2022.2.5,MacIntel,59.59475566,5eda9e891e6ee06df48c4b57,64c7fed44a04f777bb1e18ce,64c8012108c3a5ffeacf73f0,down,1,0.75,0.3714,12,0,0.787,,,,,,215,0,215,0,1,,,,,
,,984820,001,2023-07-31_20h45.07.485,arm3_eps,2022.2.5,MacIntel,59.59475566,5eda9e891e6ee06df48c4b57,64c7fed44a04f777bb1e18ce,64c8012108c3a5ffeacf73f0,right,1,0.75,0.3714,12,0.010847611,0.988,,,,,,216,0,216,0,1,,,,,
,,984820,001,2023-07-31_20h45.07.485,arm3_eps,2022.2.5,MacIntel,59.59475566,5eda9e891e6ee06df48c4b57,64c7fed44a04f777bb1e18ce,64c8012108c3a5ffeacf73f0,right,1,0.75,0.3714,12,0.025708029,0.166,,,,,,217,0,217,0,1,,,,,
,,984820,001,2023-07-31_20h45.07.485,arm3_eps,2022.2.5,MacIntel,59.59475566,5eda9e891e6ee06df48c4b57,64c7fed44a04f777bb1e18ce,64c8012108c3a5ffeacf73f0,right,1,0.75,0.3714,12,0.040937396,0.184,,,,,,218,0,218,0,1,,,,,
,,984820,001,2023-07-31_20h45.07.485,arm3_eps,2022.2.5,MacIntel,59.59475566,5eda9e891e6ee06df48c4b57,64c7fed44a04f777bb1e18ce,64c8012108c3a5ffeacf73f0,right,1,0.75,0.3714,12,0.051460609,0.169,,,,,,219,0,219,0,1,,,,,
,,984820,001,2023-07-31_20h45.07.485,arm3_eps,2022.2.5,MacIntel,59.59475566,5eda9e891e6ee06df48c4b57,64c7fed44a04f777bb1e18ce,64c8012108c3a5ffeacf73f0,right,1,0.75,0.3714,12,0.031977782,0.169,,,,,,220,0,220,0,1,,,,,
,,984820,001,2023-07-31_20h45.07.485,arm3_eps,2022.2.5,MacIntel,59.59475566,5eda9e891e6ee06df48c4b57,64c7fed44a04f777bb1e18ce,64c8012108c3a5ffeacf73f0,right,1,0.75,0.3714,12,0.041696913,0.167,,,,,,221,0,221,0,1,,,,,
,,984820,001,2023-07-31_20h45.07.485,arm3_eps,2022.2.5,MacIntel,59.59475566,5eda9e891e6ee06df48c4b57,64c7fed44a04f777bb1e18ce,64c8012108c3a5ffeacf73f0,right,1,0.75,0.3714,12,0.037765454,0.208,,,,,,222,0,222,0,1,,,,,
,,984820,001,2023-07-31_20h45.07.485,arm3_eps,2022.2.5,MacIntel,59.59475566,5eda9e891e6ee06df48c4b57,64c7fed44a04f777bb1e18ce,64c8012108c3a5ffeacf73f0,right,1,0.75,0.3714,12,0.069221147,0.153,,,,,,223,0,223,0,1,,,,,
,,984820,001,2023-07-31_20h45.07.485,arm3_eps,2022.2.5,MacIntel,59.59475566,5eda9e891e6ee06df48c4b57,64c7fed44a04f777bb1e18ce,64c8012108c3a5ffeacf73f0,right,1,0.75,0.3714,12,0.068897618,0.189,,,,,,224,0,224,0,1,,,,,
,,984820,001,2023-07-31_20h45.07.485,arm3_eps,2022.2.5,MacIntel,59.59475566,5eda9e891e6ee06df48c4b57,64c7fed44a04f777bb1e18ce,64c8012108c3a5ffeacf73f0,right,1,0.75,0.3714,12,0.08184741,0.185,,,,,,225,0,225,0,1,,,,,
,,984820,001,2023-07-31_20h45.07.485,arm3_eps,2022.2.5,MacIntel,59.59475566,5eda9e891e6ee06df48c4b57,64c7fed44a04f777bb1e18ce,64c8012108c3a5ffeacf73f0,right,1,0.75,0.3714,12,0.093247806,0.184,,,,,,226,0,226,0,1,,,,,
,,984820,001,2023-07-31_20h45.07.485,arm3_eps,2022.2.5,MacIntel,59.59475566,5eda9e891e6ee06df48c4b57,64c7fed44a04f777bb1e18ce,64c8012108c3a5ffeacf73f0,up,-1,0.75,0.3714,13,0,0.313,,,,,,227,0,227,0,1,,,,,
,,984820,001,2023-07-31_20h45.07.485,arm3_eps,2022.2.5,MacIntel,59.59475566,5eda9e891e6ee06df48c4b57,64c7fed44a04f777bb1e18ce,64c8012108c3a5ffeacf73f0,right,-1,0.75,0.3714,13,0.003870844,1.125,,,,,,228,0,228,0,1,,,,,
,,984820,001,2023-07-31_20h45.07.485,arm3_eps,2022.2.5,MacIntel,59.59475566,5eda9e891e6ee06df48c4b57,64c7fed44a04f777bb1e18ce,64c8012108c3a5ffeacf73f0,right,-1,0.75,0.3714,13,-0.010659997,0.236,,,,,,229,0,229,0,1,,,,,
,,984820,001,2023-07-31_20h45.07.485,arm3_eps,2022.2.5,MacIntel,59.59475566,5eda9e891e6ee06df48c4b57,64c7fed44a04f777bb1e18ce,64c8012108c3a5ffeacf73f0,right,-1,0.75,0.3714,13,-0.034627536,0.185,,,,,,230,0,230,0,1,,,,,
,,984820,001,2023-07-31_20h45.07.485,arm3_eps,2022.2.5,MacIntel,59.59475566,5eda9e891e6ee06df48c4b57,64c7fed44a04f777bb1e18ce,64c8012108c3a5ffeacf73f0,right,-1,0.75,0.3714,13,-0.059942316,0.202,,,,,,231,0,231,0,1,,,,,
,,984820,001,2023-07-31_20h45.07.485,arm3_eps,2022.2.5,MacIntel,59.59475566,5eda9e891e6ee06df48c4b57,64c7fed44a04f777bb1e18ce,64c8012108c3a5ffeacf73f0,right,-1,0.75,0.3714,13,-0.058353618,0.201,,,,,,232,0,232,0,1,,,,,
,,984820,001,2023-07-31_20h45.07.485,arm3_eps,2022.2.5,MacIntel,59.59475566,5eda9e891e6ee06df48c4b57,64c7fed44a04f777bb1e18ce,64c8012108c3a5ffeacf73f0,right,-1,0.75,0.3714,13,-0.05118149,0.203,,,,,,233,0,233,0,1,,,,,
,,984820,001,2023-07-31_20h45.07.485,arm3_eps,2022.2.5,MacIntel,59.59475566,5eda9e891e6ee06df48c4b57,64c7fed44a04f777bb1e18ce,64c8012108c3a5ffeacf73f0,right,-1,0.75,0.3714,13,-0.073992402,0.185,,,,,,234,0,234,0,1,,,,,
,,984820,001,2023-07-31_20h45.07.485,arm3_eps,2022.2.5,MacIntel,59.59475566,5eda9e891e6ee06df48c4b57,64c7fed44a04f777bb1e18ce,64c8012108c3a5ffeacf73f0,right,-1,0.75,0.3714,13,-0.096141127,0.164,,,,,,235,0,235,0,1,,,,,
,,984820,001,2023-07-31_20h45.07.485,arm3_eps,2022.2.5,MacIntel,59.59475566,5eda9e891e6ee06df48c4b57,64c7fed44a04f777bb1e18ce,64c8012108c3a5ffeacf73f0,down,-1,0.75,0.3714,14,0,0.437,,,,,,236,0,236,0,1,,,,,
,,984820,001,2023-07-31_20h45.07.485,arm3_eps,2022.2.5,MacIntel,59.59475566,5eda9e891e6ee06df48c4b57,64c7fed44a04f777bb1e18ce,64c8012108c3a5ffeacf73f0,right,-1,0.75,0.3714,14,-0.014871641,1.216,,,,,,237,0,237,0,1,,,,,
,,984820,001,2023-07-31_20h45.07.485,arm3_eps,2022.2.5,MacIntel,59.59475566,5eda9e891e6ee06df48c4b57,64c7fed44a04f777bb1e18ce,64c8012108c3a5ffeacf73f0,right,-1,0.75,0.3714,14,-0.012124905,0.202,,,,,,238,0,238,0,1,,,,,
,,984820,001,2023-07-31_20h45.07.485,arm3_eps,2022.2.5,MacIntel,59.59475566,5eda9e891e6ee06df48c4b57,64c7fed44a04f777bb1e18ce,64c8012108c3a5ffeacf73f0,right,-1,0.75,0.3714,14,-0.011450123,0.207,,,,,,239,0,239,0,1,,,,,
,,984820,001,2023-07-31_20h45.07.485,arm3_eps,2022.2.5,MacIntel,59.59475566,5eda9e891e6ee06df48c4b57,64c7fed44a04f777bb1e18ce,64c8012108c3a5ffeacf73f0,right,-1,0.75,0.3714,14,-0.009604532,0.184,,,,,,240,0,240,0,1,,,,,
,,984820,001,2023-07-31_20h45.07.485,arm3_eps,2022.2.5,MacIntel,59.59475566,5eda9e891e6ee06df48c4b57,64c7fed44a04f777bb1e18ce,64c8012108c3a5ffeacf73f0,right,-1,0.75,0.3714,14,-0.006450054,0.186,,,,,,241,0,241,0,1,,,,,
,,984820,001,2023-07-31_20h45.07.485,arm3_eps,2022.2.5,MacIntel,59.59475566,5eda9e891e6ee06df48c4b57,64c7fed44a04f777bb1e18ce,64c8012108c3a5ffeacf73f0,right,-1,0.75,0.3714,14,-0.01552365,0.153,,,,,,242,0,242,0,1,,,,,
,,984820,001,2023-07-31_20h45.07.485,arm3_eps,2022.2.5,MacIntel,59.59475566,5eda9e891e6ee06df48c4b57,64c7fed44a04f777bb1e18ce,64c8012108c3a5ffeacf73f0,right,-1,0.75,0.3714,14,-0.030456791,0.186,,,,,,243,0,243,0,1,,,,,
,,984820,001,2023-07-31_20h45.07.485,arm3_eps,2022.2.5,MacIntel,59.59475566,5eda9e891e6ee06df48c4b57,64c7fed44a04f777bb1e18ce,64c8012108c3a5ffeacf73f0,right,-1,0.75,0.3714,14,-0.042063064,0.183,,,,,,244,0,244,0,1,,,,,
,,984820,001,2023-07-31_20h45.07.485,arm3_eps,2022.2.5,MacIntel,59.59475566,5eda9e891e6ee06df48c4b57,64c7fed44a04f777bb1e18ce,64c8012108c3a5ffeacf73f0,right,-1,0.75,0.3714,14,-0.040964682,0.186,,,,,,245,0,245,0,1,,,,,
,,984820,001,2023-07-31_20h45.07.485,arm3_eps,2022.2.5,MacIntel,59.59475566,5eda9e891e6ee06df48c4b57,64c7fed44a04f777bb1e18ce,64c8012108c3a5ffeacf73f0,right,-1,0.75,0.3714,14,-0.087589089,0.204,,,,,,246,0,246,0,1,,,,,
,,984820,001,2023-07-31_20h45.07.485,arm3_eps,2022.2.5,MacIntel,59.59475566,5eda9e891e6ee06df48c4b57,64c7fed44a04f777bb1e18ce,64c8012108c3a5ffeacf73f0,down,1,0.75,0.3714,15,0,0.385,,,,,,247,0,247,0,1,,,,,
,,984820,001,2023-07-31_20h45.07.485,arm3_eps,2022.2.5,MacIntel,59.59475566,5eda9e891e6ee06df48c4b57,64c7fed44a04f777bb1e18ce,64c8012108c3a5ffeacf73f0,right,1,0.75,0.3714,15,-0.01007466,0.955,,,,,,248,0,248,0,1,,,,,
,,984820,001,2023-07-31_20h45.07.485,arm3_eps,2022.2.5,MacIntel,59.59475566,5eda9e891e6ee06df48c4b57,64c7fed44a04f777bb1e18ce,64c8012108c3a5ffeacf73f0,right,1,0.75,0.3714,15,-0.005922143,0.185,,,,,,249,0,249,0,1,,,,,
