space_bar.keys,space_bar.rt,participant,session,date,expName,psychopyVersion,OS,frameRate,PROLIFIC_PID,STUDY_ID,SESSION_ID,resp.keys,state,q_prob,eps_prob,score,price,resp.rt,train.thisRepN,train.thisTrialN,train.thisN,train.thisIndex,train.ran,steps.thisRepN,steps.thisTrialN,steps.thisN,steps.thisIndex,steps.ran,blocks.thisRepN,blocks.thisTrialN,blocks.thisN,blocks.thisIndex,blocks.ran
space,28.1733,989492,001,2023-07-31_20h59.35.096,arm3_eps,2022.2.5,Win32,58.46585594,615a0c65241737f2dece4771,64c7fed44a04f777bb1e18ce,64c801708a29f4ecb9763be2,,,,,,,,,,,,,,,,,,,,,,
space,0.0642,989492,001,2023-07-31_20h59.35.096,arm3_eps,2022.2.5,Win32,58.46585594,615a0c65241737f2dece4771,64c7fed44a04f777bb1e18ce,64c801708a29f4ecb9763be2,,,,,,,,,,,,,,,,,,,,,,
space,9.7692,989492,001,2023-07-31_20h59.35.096,arm3_eps,2022.2.5,Win32,58.46585594,615a0c65241737f2dece4771,64c7fed44a04f777bb1e18ce,64c801708a29f4ecb9763be2,,,,,,,,,,,,,,,,,,,,,,
space,15.193,989492,001,2023-07-31_20h59.35.096,arm3_eps,2022.2.5,Win32,58.46585594,615a0c65241737f2dece4771,64c7fed44a04f777bb1e18ce,64c801708a29f4ecb9763be2,,,,,,,,,,,,,,,,,,,,,,
space,38.9923,989492,001,2023-07-31_20h59.35.096,arm3_eps,2022.2.5,Win32,58.46585594,615a0c65241737f2dece4771,64c7fed44a04f777bb1e18ce,64c801708a29f4ecb9763be2,,,,,,,,,,,,,,,,,,,,,,
space,14.9565,989492,001,2023-07-31_20h59.35.096,arm3_eps,2022.2.5,Win32,58.46585594,615a0c65241737f2dece4771,64c7fed44a04f777bb1e18ce,64c801708a29f4ecb9763be2,,,,,,,,,,,,,,,,,,,,,,
space,1.7806,989492,001,2023-07-31_20h59.35.096,arm3_eps,2022.2.5,Win32,58.46585594,615a0c65241737f2dece4771,64c7fed44a04f777bb1e18ce,64c801708a29f4ecb9763be2,,,,,,,,,,,,,,,,,,,,,,
,,989492,001,2023-07-31_20h59.35.096,arm3_eps,2022.2.5,Win32,58.46585594,615a0c65241737f2dece4771,64c7fed44a04f777bb1e18ce,64c801708a29f4ecb9763be2,right,-1,1,0.2429,0,0.030617571,4.4106,0,0,0,0,1,,,,,,,,,,
,,989492,001,2023-07-31_20h59.35.096,arm3_eps,2022.2.5,Win32,58.46585594,615a0c65241737f2dece4771,64c7fed44a04f777bb1e18ce,64c801708a29f4ecb9763be2,right,-1,1,0.2429,0,0.001061299,2.2511,1,0,1,0,1,,,,,,,,,,
,,989492,001,2023-07-31_20h59.35.096,arm3_eps,2022.2.5,Win32,58.46585594,615a0c65241737f2dece4771,64c7fed44a04f777bb1e18ce,64c801708a29f4ecb9763be2,up,-1,1,0.2429,-1,0,1.1798,2,0,2,0,1,,,,,,,,,,
,,989492,001,2023-07-31_20h59.35.096,arm3_eps,2022.2.5,Win32,58.46585594,615a0c65241737f2dece4771,64c7fed44a04f777bb1e18ce,64c801708a29f4ecb9763be2,right,-1,1,0.2429,-1,-0.029618902,1.8148,3,0,3,0,1,,,,,,,,,,
,,989492,001,2023-07-31_20h59.35.096,arm3_eps,2022.2.5,Win32,58.46585594,615a0c65241737f2dece4771,64c7fed44a04f777bb1e18ce,64c801708a29f4ecb9763be2,right,-1,1,0.2429,-1,-0.048156277,0.6062,4,0,4,0,1,,,,,,,,,,
,,989492,001,2023-07-31_20h59.35.096,arm3_eps,2022.2.5,Win32,58.46585594,615a0c65241737f2dece4771,64c7fed44a04f777bb1e18ce,64c801708a29f4ecb9763be2,right,-1,1,0.2429,-1,-0.039692832,0.5316,5,0,5,0,1,,,,,,,,,,
,,989492,001,2023-07-31_20h59.35.096,arm3_eps,2022.2.5,Win32,58.46585594,615a0c65241737f2dece4771,64c7fed44a04f777bb1e18ce,64c801708a29f4ecb9763be2,right,-1,1,0.2429,-1,0.000450349,0.4617,6,0,6,0,1,,,,,,,,,,
,,989492,001,2023-07-31_20h59.35.096,arm3_eps,2022.2.5,Win32,58.46585594,615a0c65241737f2dece4771,64c7fed44a04f777bb1e18ce,64c801708a29f4ecb9763be2,right,-1,1,0.2429,-1,-0.017993654,0.3489,7,0,7,0,1,,,,,,,,,,
,,989492,001,2023-07-31_20h59.35.096,arm3_eps,2022.2.5,Win32,58.46585594,615a0c65241737f2dece4771,64c7fed44a04f777bb1e18ce,64c801708a29f4ecb9763be2,right,-1,1,0.2429,-1,-0.019787161,0.3375,8,0,8,0,1,,,,,,,,,,
,,989492,001,2023-07-31_20h59.35.096,arm3_eps,2022.2.5,Win32,58.46585594,615a0c65241737f2dece4771,64c7fed44a04f777bb1e18ce,64c801708a29f4ecb9763be2,right,-1,1,0.2429,-1,-0.035994901,0.337,9,0,9,0,1,,,,,,,,,,
,,989492,001,2023-07-31_20h59.35.096,arm3_eps,2022.2.5,Win32,58.46585594,615a0c65241737f2dece4771,64c7fed44a04f777bb1e18ce,64c801708a29f4ecb9763be2,right,-1,1,0.2429,-1,-0.033903114,0.4134,10,0,10,0,1,,,,,,,,,,
,,989492,001,2023-07-31_20h59.35.096,arm3_eps,2022.2.5,Win32,58.46585594,615a0c65241737f2dece4771,64c7fed44a04f777bb1e18ce,64c801708a29f4ecb9763be2,right,-1,1,0.2429,-1,-0.046597583,0.3913,11,0,11,0,1,,,,,,,,,,
,,989492,001,2023-07-31_20h59.35.096,arm3_eps,2022.2.5,Win32,58.46585594,615a0c65241737f2dece4771,64c7fed44a04f777bb1e18ce,64c801708a29f4ecb9763be2,right,-1,1,0.2429,-1,-0.072212013,0.4427,12,0,12,0,1,,,,,,,,,,
,,989492,001,2023-07-31_20h59.35.096,arm3_eps,2022.2.5,Win32,58.46585594,615a0c65241737f2dece4771,64c7fed44a04f777bb1e18ce,64c801708a29f4ecb9763be2,right,-1,1,0.2429,-1,-0.104254651,0.305,13,0,13,0,1,,,,,,,,,,
,,989492,001,2023-07-31_20h59.35.096,arm3_eps,2022.2.5,Win32,58.46585594,615a0c65241737f2dece4771,64c7fed44a04f777bb1e18ce,64c801708a29f4ecb9763be2,right,-1,1,0.2429,-1,-0.11769792,0.6606,14,0,14,0,1,,,,,,,,,,
,,989492,001,2023-07-31_20h59.35.096,arm3_eps,2022.2.5,Win32,58.46585594,615a0c65241737f2dece4771,64c7fed44a04f777bb1e18ce,64c801708a29f4ecb9763be2,down,-1,1,0.2429,0,0,2.4469,15,0,15,0,1,,,,,,,,,,
,,989492,001,2023-07-31_20h59.35.096,arm3_eps,2022.2.5,Win32,58.46585594,615a0c65241737f2dece4771,64c7fed44a04f777bb1e18ce,64c801708a29f4ecb9763be2,right,-1,1,0.2429,0,0.013514061,1.6346,16,0,16,0,1,,,,,,,,,,
,,989492,001,2023-07-31_20h59.35.096,arm3_eps,2022.2.5,Win32,58.46585594,615a0c65241737f2dece4771,64c7fed44a04f777bb1e18ce,64c801708a29f4ecb9763be2,right,-1,1,0.2429,0,-0.008358727,0.3512,17,0,17,0,1,,,,,,,,,,
,,989492,001,2023-07-31_20h59.35.096,arm3_eps,2022.2.5,Win32,58.46585594,615a0c65241737f2dece4771,64c7fed44a04f777bb1e18ce,64c801708a29f4ecb9763be2,right,-1,1,0.2429,0,-0.03579245,0.2352,18,0,18,0,1,,,,,,,,,,
,,989492,001,2023-07-31_20h59.35.096,arm3_eps,2022.2.5,Win32,58.46585594,615a0c65241737f2dece4771,64c7fed44a04f777bb1e18ce,64c801708a29f4ecb9763be2,right,-1,1,0.2429,0,-0.011558624,0.2906,19,0,19,0,1,,,,,,,,,,
,,989492,001,2023-07-31_20h59.35.096,arm3_eps,2022.2.5,Win32,58.46585594,615a0c65241737f2dece4771,64c7fed44a04f777bb1e18ce,64c801708a29f4ecb9763be2,right,-1,1,0.2429,0,0.005963859,0.2737,20,0,20,0,1,,,,,,,,,,
,,989492,001,2023-07-31_20h59.35.096,arm3_eps,2022.2.5,Win32,58.46585594,615a0c65241737f2dece4771,64c7fed44a04f777bb1e18ce,64c801708a29f4ecb9763be2,right,-1,1,0.2429,0,-0.006691071,0.2574,21,0,21,0,1,,,,,,,,,,
,,989492,001,2023-07-31_20h59.35.096,arm3_eps,2022.2.5,Win32,58.46585594,615a0c65241737f2dece4771,64c7fed44a04f777bb1e18ce,64c801708a29f4ecb9763be2,right,-1,1,0.2429,0,-0.009859541,0.2553,22,0,22,0,1,,,,,,,,,,
,,989492,001,2023-07-31_20h59.35.096,arm3_eps,2022.2.5,Win32,58.46585594,615a0c65241737f2dece4771,64c7fed44a04f777bb1e18ce,64c801708a29f4ecb9763be2,right,-1,1,0.2429,0,-0.010991006,0.2203,23,0,23,0,1,,,,,,,,,,
,,989492,001,2023-07-31_20h59.35.096,arm3_eps,2022.2.5,Win32,58.46585594,615a0c65241737f2dece4771,64c7fed44a04f777bb1e18ce,64c801708a29f4ecb9763be2,right,-1,1,0.2429,0,0.021902903,0.202,24,0,24,0,1,,,,,,,,,,
,,989492,001,2023-07-31_20h59.35.096,arm3_eps,2022.2.5,Win32,58.46585594,615a0c65241737f2dece4771,64c7fed44a04f777bb1e18ce,64c801708a29f4ecb9763be2,right,-1,1,0.2429,0,-0.000523309,0.2542,25,0,25,0,1,,,,,,,,,,
,,989492,001,2023-07-31_20h59.35.096,arm3_eps,2022.2.5,Win32,58.46585594,615a0c65241737f2dece4771,64c7fed44a04f777bb1e18ce,64c801708a29f4ecb9763be2,right,-1,1,0.2429,0,-0.024944586,0.2712,26,0,26,0,1,,,,,,,,,,
,,989492,001,2023-07-31_20h59.35.096,arm3_eps,2022.2.5,Win32,58.46585594,615a0c65241737f2dece4771,64c7fed44a04f777bb1e18ce,64c801708a29f4ecb9763be2,right,-1,1,0.2429,0,-0.065351127,0.3027,27,0,27,0,1,,,,,,,,,,
,,989492,001,2023-07-31_20h59.35.096,arm3_eps,2022.2.5,Win32,58.46585594,615a0c65241737f2dece4771,64c7fed44a04f777bb1e18ce,64c801708a29f4ecb9763be2,down,-1,1,0.2429,1,0,1.7188,28,0,28,0,1,,,,,,,,,,
,,989492,001,2023-07-31_20h59.35.096,arm3_eps,2022.2.5,Win32,58.46585594,615a0c65241737f2dece4771,64c7fed44a04f777bb1e18ce,64c801708a29f4ecb9763be2,right,-1,1,0.2429,1,9.35897E-05,1.3137,29,0,29,0,1,,,,,,,,,,
,,989492,001,2023-07-31_20h59.35.096,arm3_eps,2022.2.5,Win32,58.46585594,615a0c65241737f2dece4771,64c7fed44a04f777bb1e18ce,64c801708a29f4ecb9763be2,right,-1,1,0.2429,1,0.009644052,0.3176,30,0,30,0,1,,,,,,,,,,
,,989492,001,2023-07-31_20h59.35.096,arm3_eps,2022.2.5,Win32,58.46585594,615a0c65241737f2dece4771,64c7fed44a04f777bb1e18ce,64c801708a29f4ecb9763be2,right,-1,1,0.2429,1,0.022434519,0.2556,31,0,31,0,1,,,,,,,,,,
,,989492,001,2023-07-31_20h59.35.096,arm3_eps,2022.2.5,Win32,58.46585594,615a0c65241737f2dece4771,64c7fed44a04f777bb1e18ce,64c801708a29f4ecb9763be2,right,-1,1,0.2429,1,0.017510746,0.2466,32,0,32,0,1,,,,,,,,,,
,,989492,001,2023-07-31_20h59.35.096,arm3_eps,2022.2.5,Win32,58.46585594,615a0c65241737f2dece4771,64c7fed44a04f777bb1e18ce,64c801708a29f4ecb9763be2,right,-1,1,0.2429,1,-0.012736442,0.2157,33,0,33,0,1,,,,,,,,,,
,,989492,001,2023-07-31_20h59.35.096,arm3_eps,2022.2.5,Win32,58.46585594,615a0c65241737f2dece4771,64c7fed44a04f777bb1e18ce,64c801708a29f4ecb9763be2,right,-1,1,0.2429,1,-0.030312756,0.2582,34,0,34,0,1,,,,,,,,,,
,,989492,001,2023-07-31_20h59.35.096,arm3_eps,2022.2.5,Win32,58.46585594,615a0c65241737f2dece4771,64c7fed44a04f777bb1e18ce,64c801708a29f4ecb9763be2,right,-1,1,0.2429,1,-0.0468406,0.2363,35,0,35,0,1,,,,,,,,,,
,,989492,001,2023-07-31_20h59.35.096,arm3_eps,2022.2.5,Win32,58.46585594,615a0c65241737f2dece4771,64c7fed44a04f777bb1e18ce,64c801708a29f4ecb9763be2,right,-1,1,0.2429,1,-0.103185161,0.27,36,0,36,0,1,,,,,,,,,,
,,989492,001,2023-07-31_20h59.35.096,arm3_eps,2022.2.5,Win32,58.46585594,615a0c65241737f2dece4771,64c7fed44a04f777bb1e18ce,64c801708a29f4ecb9763be2,right,-1,1,0.2429,1,-0.083183463,0.1884,37,0,37,0,1,,,,,,,,,,
,,989492,001,2023-07-31_20h59.35.096,arm3_eps,2022.2.5,Win32,58.46585594,615a0c65241737f2dece4771,64c7fed44a04f777bb1e18ce,64c801708a29f4ecb9763be2,right,-1,1,0.2429,1,-0.116695166,0.2272,38,0,38,0,1,,,,,,,,,,
,,989492,001,2023-07-31_20h59.35.096,arm3_eps,2022.2.5,Win32,58.46585594,615a0c65241737f2dece4771,64c7fed44a04f777bb1e18ce,64c801708a29f4ecb9763be2,right,-1,1,0.2429,1,-0.1398099,0.2233,39,0,39,0,1,,,,,,,,,,
,,989492,001,2023-07-31_20h59.35.096,arm3_eps,2022.2.5,Win32,58.46585594,615a0c65241737f2dece4771,64c7fed44a04f777bb1e18ce,64c801708a29f4ecb9763be2,right,-1,1,0.2429,1,-0.121876364,0.2374,40,0,40,0,1,,,,,,,,,,
,,989492,001,2023-07-31_20h59.35.096,arm3_eps,2022.2.5,Win32,58.46585594,615a0c65241737f2dece4771,64c7fed44a04f777bb1e18ce,64c801708a29f4ecb9763be2,down,-1,1,0.2429,2,0,1.7035,41,0,41,0,1,,,,,,,,,,
,,989492,001,2023-07-31_20h59.35.096,arm3_eps,2022.2.5,Win32,58.46585594,615a0c65241737f2dece4771,64c7fed44a04f777bb1e18ce,64c801708a29f4ecb9763be2,right,-1,1,0.2429,2,0.005492943,1.201,42,0,42,0,1,,,,,,,,,,
,,989492,001,2023-07-31_20h59.35.096,arm3_eps,2022.2.5,Win32,58.46585594,615a0c65241737f2dece4771,64c7fed44a04f777bb1e18ce,64c801708a29f4ecb9763be2,right,-1,1,0.2429,2,0.001603664,0.2858,43,0,43,0,1,,,,,,,,,,
,,989492,001,2023-07-31_20h59.35.096,arm3_eps,2022.2.5,Win32,58.46585594,615a0c65241737f2dece4771,64c7fed44a04f777bb1e18ce,64c801708a29f4ecb9763be2,right,-1,1,0.2429,2,-0.033170895,0.2442,44,0,44,0,1,,,,,,,,,,
,,989492,001,2023-07-31_20h59.35.096,arm3_eps,2022.2.5,Win32,58.46585594,615a0c65241737f2dece4771,64c7fed44a04f777bb1e18ce,64c801708a29f4ecb9763be2,right,-1,1,0.2429,2,-0.009139181,0.23,45,0,45,0,1,,,,,,,,,,
,,989492,001,2023-07-31_20h59.35.096,arm3_eps,2022.2.5,Win32,58.46585594,615a0c65241737f2dece4771,64c7fed44a04f777bb1e18ce,64c801708a29f4ecb9763be2,right,-1,1,0.2429,2,-0.039764314,0.2567,46,0,46,0,1,,,,,,,,,,
,,989492,001,2023-07-31_20h59.35.096,arm3_eps,2022.2.5,Win32,58.46585594,615a0c65241737f2dece4771,64c7fed44a04f777bb1e18ce,64c801708a29f4ecb9763be2,right,-1,1,0.2429,2,-0.054170118,0.1961,47,0,47,0,1,,,,,,,,,,
,,989492,001,2023-07-31_20h59.35.096,arm3_eps,2022.2.5,Win32,58.46585594,615a0c65241737f2dece4771,64c7fed44a04f777bb1e18ce,64c801708a29f4ecb9763be2,right,-1,1,0.2429,2,-0.047705589,0.2736,48,0,48,0,1,,,,,,,,,,
,,989492,001,2023-07-31_20h59.35.096,arm3_eps,2022.2.5,Win32,58.46585594,615a0c65241737f2dece4771,64c7fed44a04f777bb1e18ce,64c801708a29f4ecb9763be2,right,-1,1,0.2429,2,-0.056894723,0.2867,49,0,49,0,1,,,,,,,,,,
space,17.7293,989492,001,2023-07-31_20h59.35.096,arm3_eps,2022.2.5,Win32,58.46585594,615a0c65241737f2dece4771,64c7fed44a04f777bb1e18ce,64c801708a29f4ecb9763be2,,,,,,,,,,,,,,,,,,,,,,
space,11.6125,989492,001,2023-07-31_20h59.35.096,arm3_eps,2022.2.5,Win32,58.46585594,615a0c65241737f2dece4771,64c7fed44a04f777bb1e18ce,64c801708a29f4ecb9763be2,,,,,,,,,,,,,,,,,,,,,,
space,15.7557,989492,001,2023-07-31_20h59.35.096,arm3_eps,2022.2.5,Win32,58.46585594,615a0c65241737f2dece4771,64c7fed44a04f777bb1e18ce,64c801708a29f4ecb9763be2,,,,,,,,,,,,,,,,,,,,,,
space,10.0499,989492,001,2023-07-31_20h59.35.096,arm3_eps,2022.2.5,Win32,58.46585594,615a0c65241737f2dece4771,64c7fed44a04f777bb1e18ce,64c801708a29f4ecb9763be2,,,,,,,,,,,,,,,,,,,,,,
space,6.8408,989492,001,2023-07-31_20h59.35.096,arm3_eps,2022.2.5,Win32,58.46585594,615a0c65241737f2dece4771,64c7fed44a04f777bb1e18ce,64c801708a29f4ecb9763be2,,,,,,,,,,,,,,,,,,,,,,
space,1.5482,989492,001,2023-07-31_20h59.35.096,arm3_eps,2022.2.5,Win32,58.46585594,615a0c65241737f2dece4771,64c7fed44a04f777bb1e18ce,64c801708a29f4ecb9763be2,,,,,,,,,,,,,,,,,,,,,,
,,989492,001,2023-07-31_20h59.35.096,arm3_eps,2022.2.5,Win32,58.46585594,615a0c65241737f2dece4771,64c7fed44a04f777bb1e18ce,64c801708a29f4ecb9763be2,up,-1,0.75,0.2429,-1,0,1.6711,0,0,0,0,1,,,,,,,,,,
,,989492,001,2023-07-31_20h59.35.096,arm3_eps,2022.2.5,Win32,58.46585594,615a0c65241737f2dece4771,64c7fed44a04f777bb1e18ce,64c801708a29f4ecb9763be2,right,-1,0.75,0.2429,-1,-0.018965749,1.2974,1,0,1,0,1,,,,,,,,,,
,,989492,001,2023-07-31_20h59.35.096,arm3_eps,2022.2.5,Win32,58.46585594,615a0c65241737f2dece4771,64c7fed44a04f777bb1e18ce,64c801708a29f4ecb9763be2,right,-1,0.75,0.2429,-1,-0.033034675,0.3627,2,0,2,0,1,,,,,,,,,,
,,989492,001,2023-07-31_20h59.35.096,arm3_eps,2022.2.5,Win32,58.46585594,615a0c65241737f2dece4771,64c7fed44a04f777bb1e18ce,64c801708a29f4ecb9763be2,right,-1,0.75,0.2429,-1,-0.037852644,0.1871,3,0,3,0,1,,,,,,,,,,
,,989492,001,2023-07-31_20h59.35.096,arm3_eps,2022.2.5,Win32,58.46585594,615a0c65241737f2dece4771,64c7fed44a04f777bb1e18ce,64c801708a29f4ecb9763be2,right,-1,0.75,0.2429,-1,-0.059491865,0.2093,4,0,4,0,1,,,,,,,,,,
,,989492,001,2023-07-31_20h59.35.096,arm3_eps,2022.2.5,Win32,58.46585594,615a0c65241737f2dece4771,64c7fed44a04f777bb1e18ce,64c801708a29f4ecb9763be2,right,-1,0.75,0.2429,-1,-0.063414167,0.1729,5,0,5,0,1,,,,,,,,,,
,,989492,001,2023-07-31_20h59.35.096,arm3_eps,2022.2.5,Win32,58.46585594,615a0c65241737f2dece4771,64c7fed44a04f777bb1e18ce,64c801708a29f4ecb9763be2,right,-1,0.75,0.2429,-1,-0.044131809,0.2098,6,0,6,0,1,,,,,,,,,,
,,989492,001,2023-07-31_20h59.35.096,arm3_eps,2022.2.5,Win32,58.46585594,615a0c65241737f2dece4771,64c7fed44a04f777bb1e18ce,64c801708a29f4ecb9763be2,right,-1,0.75,0.2429,-1,-0.031667158,0.1948,7,0,7,0,1,,,,,,,,,,
,,989492,001,2023-07-31_20h59.35.096,arm3_eps,2022.2.5,Win32,58.46585594,615a0c65241737f2dece4771,64c7fed44a04f777bb1e18ce,64c801708a29f4ecb9763be2,right,-1,0.75,0.2429,-1,-0.010136437,0.1903,8,0,8,0,1,,,,,,,,,,
,,989492,001,2023-07-31_20h59.35.096,arm3_eps,2022.2.5,Win32,58.46585594,615a0c65241737f2dece4771,64c7fed44a04f777bb1e18ce,64c801708a29f4ecb9763be2,right,-1,0.75,0.2429,-1,-0.022921802,0.198,9,0,9,0,1,,,,,,,,,,
,,989492,001,2023-07-31_20h59.35.096,arm3_eps,2022.2.5,Win32,58.46585594,615a0c65241737f2dece4771,64c7fed44a04f777bb1e18ce,64c801708a29f4ecb9763be2,right,-1,0.75,0.2429,-1,-0.019051066,0.2493,10,0,10,0,1,,,,,,,,,,
,,989492,001,2023-07-31_20h59.35.096,arm3_eps,2022.2.5,Win32,58.46585594,615a0c65241737f2dece4771,64c7fed44a04f777bb1e18ce,64c801708a29f4ecb9763be2,right,-1,0.75,0.2429,-1,-0.037914615,0.2357,11,0,11,0,1,,,,,,,,,,
,,989492,001,2023-07-31_20h59.35.096,arm3_eps,2022.2.5,Win32,58.46585594,615a0c65241737f2dece4771,64c7fed44a04f777bb1e18ce,64c801708a29f4ecb9763be2,right,-1,0.75,0.2429,-1,-0.002889887,0.246,12,0,12,0,1,,,,,,,,,,
,,989492,001,2023-07-31_20h59.35.096,arm3_eps,2022.2.5,Win32,58.46585594,615a0c65241737f2dece4771,64c7fed44a04f777bb1e18ce,64c801708a29f4ecb9763be2,up,-1,0.75,0.2429,-2,0,2.0355,13,0,13,0,1,,,,,,,,,,
,,989492,001,2023-07-31_20h59.35.096,arm3_eps,2022.2.5,Win32,58.46585594,615a0c65241737f2dece4771,64c7fed44a04f777bb1e18ce,64c801708a29f4ecb9763be2,right,-1,0.75,0.2429,-2,-0.002563767,1.1307,14,0,14,0,1,,,,,,,,,,
,,989492,001,2023-07-31_20h59.35.096,arm3_eps,2022.2.5,Win32,58.46585594,615a0c65241737f2dece4771,64c7fed44a04f777bb1e18ce,64c801708a29f4ecb9763be2,right,-1,0.75,0.2429,-2,-0.014308648,0.2142,15,0,15,0,1,,,,,,,,,,
,,989492,001,2023-07-31_20h59.35.096,arm3_eps,2022.2.5,Win32,58.46585594,615a0c65241737f2dece4771,64c7fed44a04f777bb1e18ce,64c801708a29f4ecb9763be2,right,-1,0.75,0.2429,-2,-0.026382696,0.1618,16,0,16,0,1,,,,,,,,,,
,,989492,001,2023-07-31_20h59.35.096,arm3_eps,2022.2.5,Win32,58.46585594,615a0c65241737f2dece4771,64c7fed44a04f777bb1e18ce,64c801708a29f4ecb9763be2,right,-1,0.75,0.2429,-2,-0.01896039,0.1486,17,0,17,0,1,,,,,,,,,,
,,989492,001,2023-07-31_20h59.35.096,arm3_eps,2022.2.5,Win32,58.46585594,615a0c65241737f2dece4771,64c7fed44a04f777bb1e18ce,64c801708a29f4ecb9763be2,right,-1,0.75,0.2429,-2,0.011052523,0.1522,18,0,18,0,1,,,,,,,,,,
,,989492,001,2023-07-31_20h59.35.096,arm3_eps,2022.2.5,Win32,58.46585594,615a0c65241737f2dece4771,64c7fed44a04f777bb1e18ce,64c801708a29f4ecb9763be2,right,-1,0.75,0.2429,-2,-0.03152782,0.1989,19,0,19,0,1,,,,,,,,,,
,,989492,001,2023-07-31_20h59.35.096,arm3_eps,2022.2.5,Win32,58.46585594,615a0c65241737f2dece4771,64c7fed44a04f777bb1e18ce,64c801708a29f4ecb9763be2,right,-1,0.75,0.2429,-2,-0.017886543,0.1863,20,0,20,0,1,,,,,,,,,,
,,989492,001,2023-07-31_20h59.35.096,arm3_eps,2022.2.5,Win32,58.46585594,615a0c65241737f2dece4771,64c7fed44a04f777bb1e18ce,64c801708a29f4ecb9763be2,right,-1,0.75,0.2429,-2,-0.028616652,0.1374,21,0,21,0,1,,,,,,,,,,
,,989492,001,2023-07-31_20h59.35.096,arm3_eps,2022.2.5,Win32,58.46585594,615a0c65241737f2dece4771,64c7fed44a04f777bb1e18ce,64c801708a29f4ecb9763be2,right,-1,0.75,0.2429,-2,-0.053002309,0.2601,22,0,22,0,1,,,,,,,,,,
,,989492,001,2023-07-31_20h59.35.096,arm3_eps,2022.2.5,Win32,58.46585594,615a0c65241737f2dece4771,64c7fed44a04f777bb1e18ce,64c801708a29f4ecb9763be2,right,-1,0.75,0.2429,-2,-0.018178186,0.2087,23,0,23,0,1,,,,,,,,,,
,,989492,001,2023-07-31_20h59.35.096,arm3_eps,2022.2.5,Win32,58.46585594,615a0c65241737f2dece4771,64c7fed44a04f777bb1e18ce,64c801708a29f4ecb9763be2,right,-1,0.75,0.2429,-2,-0.049060053,0.1584,24,0,24,0,1,,,,,,,,,,
,,989492,001,2023-07-31_20h59.35.096,arm3_eps,2022.2.5,Win32,58.46585594,615a0c65241737f2dece4771,64c7fed44a04f777bb1e18ce,64c801708a29f4ecb9763be2,right,-1,0.75,0.2429,-2,-0.029814812,0.215,25,0,25,0,1,,,,,,,,,,
,,989492,001,2023-07-31_20h59.35.096,arm3_eps,2022.2.5,Win32,58.46585594,615a0c65241737f2dece4771,64c7fed44a04f777bb1e18ce,64c801708a29f4ecb9763be2,down,-1,0.75,0.2429,-1,0,1.2058,26,0,26,0,1,,,,,,,,,,
,,989492,001,2023-07-31_20h59.35.096,arm3_eps,2022.2.5,Win32,58.46585594,615a0c65241737f2dece4771,64c7fed44a04f777bb1e18ce,64c801708a29f4ecb9763be2,right,-1,0.75,0.2429,-1,0.020971846,0.9782,27,0,27,0,1,,,,,,,,,,
,,989492,001,2023-07-31_20h59.35.096,arm3_eps,2022.2.5,Win32,58.46585594,615a0c65241737f2dece4771,64c7fed44a04f777bb1e18ce,64c801708a29f4ecb9763be2,right,-1,0.75,0.2429,-1,-0.002349078,0.2017,28,0,28,0,1,,,,,,,,,,
,,989492,001,2023-07-31_20h59.35.096,arm3_eps,2022.2.5,Win32,58.46585594,615a0c65241737f2dece4771,64c7fed44a04f777bb1e18ce,64c801708a29f4ecb9763be2,right,-1,0.75,0.2429,-1,-0.042224379,0.1011,29,0,29,0,1,,,,,,,,,,
,,989492,001,2023-07-31_20h59.35.096,arm3_eps,2022.2.5,Win32,58.46585594,615a0c65241737f2dece4771,64c7fed44a04f777bb1e18ce,64c801708a29f4ecb9763be2,right,-1,0.75,0.2429,-1,-0.037446757,0.1929,30,0,30,0,1,,,,,,,,,,
,,989492,001,2023-07-31_20h59.35.096,arm3_eps,2022.2.5,Win32,58.46585594,615a0c65241737f2dece4771,64c7fed44a04f777bb1e18ce,64c801708a29f4ecb9763be2,right,-1,0.75,0.2429,-1,-0.049635221,0.1984,31,0,31,0,1,,,,,,,,,,
,,989492,001,2023-07-31_20h59.35.096,arm3_eps,2022.2.5,Win32,58.46585594,615a0c65241737f2dece4771,64c7fed44a04f777bb1e18ce,64c801708a29f4ecb9763be2,right,-1,0.75,0.2429,-1,-0.061939076,0.0939,32,0,32,0,1,,,,,,,,,,
,,989492,001,2023-07-31_20h59.35.096,arm3_eps,2022.2.5,Win32,58.46585594,615a0c65241737f2dece4771,64c7fed44a04f777bb1e18ce,64c801708a29f4ecb9763be2,right,-1,0.75,0.2429,-1,-0.068661289,0.132,33,0,33,0,1,,,,,,,,,,
,,989492,001,2023-07-31_20h59.35.096,arm3_eps,2022.2.5,Win32,58.46585594,615a0c65241737f2dece4771,64c7fed44a04f777bb1e18ce,64c801708a29f4ecb9763be2,right,-1,0.75,0.2429,-1,-0.096478326,0.109,34,0,34,0,1,,,,,,,,,,
,,989492,001,2023-07-31_20h59.35.096,arm3_eps,2022.2.5,Win32,58.46585594,615a0c65241737f2dece4771,64c7fed44a04f777bb1e18ce,64c801708a29f4ecb9763be2,right,-1,0.75,0.2429,-1,-0.084924987,0.227,35,0,35,0,1,,,,,,,,,,
,,989492,001,2023-07-31_20h59.35.096,arm3_eps,2022.2.5,Win32,58.46585594,615a0c65241737f2dece4771,64c7fed44a04f777bb1e18ce,64c801708a29f4ecb9763be2,right,-1,0.75,0.2429,-1,-0.113908424,0.2154,36,0,36,0,1,,,,,,,,,,
,,989492,001,2023-07-31_20h59.35.096,arm3_eps,2022.2.5,Win32,58.46585594,615a0c65241737f2dece4771,64c7fed44a04f777bb1e18ce,64c801708a29f4ecb9763be2,right,-1,0.75,0.2429,-1,-0.083025853,0.1799,37,0,37,0,1,,,,,,,,,,
,,989492,001,2023-07-31_20h59.35.096,arm3_eps,2022.2.5,Win32,58.46585594,615a0c65241737f2dece4771,64c7fed44a04f777bb1e18ce,64c801708a29f4ecb9763be2,right,-1,0.75,0.2429,-1,-0.097453693,0.463,38,0,38,0,1,,,,,,,,,,
,,989492,001,2023-07-31_20h59.35.096,arm3_eps,2022.2.5,Win32,58.46585594,615a0c65241737f2dece4771,64c7fed44a04f777bb1e18ce,64c801708a29f4ecb9763be2,up,-1,0.75,0.2429,-2,0,1.7707,39,0,39,0,1,,,,,,,,,,
,,989492,001,2023-07-31_20h59.35.096,arm3_eps,2022.2.5,Win32,58.46585594,615a0c65241737f2dece4771,64c7fed44a04f777bb1e18ce,64c801708a29f4ecb9763be2,right,-1,0.75,0.2429,-2,0.009967021,0.9447,40,0,40,0,1,,,,,,,,,,
,,989492,001,2023-07-31_20h59.35.096,arm3_eps,2022.2.5,Win32,58.46585594,615a0c65241737f2dece4771,64c7fed44a04f777bb1e18ce,64c801708a29f4ecb9763be2,right,-1,0.75,0.2429,-2,0.015355757,0.1519,41,0,41,0,1,,,,,,,,,,
,,989492,001,2023-07-31_20h59.35.096,arm3_eps,2022.2.5,Win32,58.46585594,615a0c65241737f2dece4771,64c7fed44a04f777bb1e18ce,64c801708a29f4ecb9763be2,right,-1,0.75,0.2429,-2,-0.002881574,0.1737,42,0,42,0,1,,,,,,,,,,
,,989492,001,2023-07-31_20h59.35.096,arm3_eps,2022.2.5,Win32,58.46585594,615a0c65241737f2dece4771,64c7fed44a04f777bb1e18ce,64c801708a29f4ecb9763be2,right,-1,0.75,0.2429,-2,0.00520482,0.1339,43,0,43,0,1,,,,,,,,,,
,,989492,001,2023-07-31_20h59.35.096,arm3_eps,2022.2.5,Win32,58.46585594,615a0c65241737f2dece4771,64c7fed44a04f777bb1e18ce,64c801708a29f4ecb9763be2,right,-1,0.75,0.2429,-2,0.023421281,0.1746,44,0,44,0,1,,,,,,,,,,
,,989492,001,2023-07-31_20h59.35.096,arm3_eps,2022.2.5,Win32,58.46585594,615a0c65241737f2dece4771,64c7fed44a04f777bb1e18ce,64c801708a29f4ecb9763be2,right,-1,0.75,0.2429,-2,0.030384202,0.1363,45,0,45,0,1,,,,,,,,,,
,,989492,001,2023-07-31_20h59.35.096,arm3_eps,2022.2.5,Win32,58.46585594,615a0c65241737f2dece4771,64c7fed44a04f777bb1e18ce,64c801708a29f4ecb9763be2,right,-1,0.75,0.2429,-2,0.042665603,0.3458,46,0,46,0,1,,,,,,,,,,
,,989492,001,2023-07-31_20h59.35.096,arm3_eps,2022.2.5,Win32,58.46585594,615a0c65241737f2dece4771,64c7fed44a04f777bb1e18ce,64c801708a29f4ecb9763be2,right,-1,0.75,0.2429,-2,0.048765308,0.1504,47,0,47,0,1,,,,,,,,,,
,,989492,001,2023-07-31_20h59.35.096,arm3_eps,2022.2.5,Win32,58.46585594,615a0c65241737f2dece4771,64c7fed44a04f777bb1e18ce,64c801708a29f4ecb9763be2,right,-1,0.75,0.2429,-2,0.029411142,0.1887,48,0,48,0,1,,,,,,,,,,
,,989492,001,2023-07-31_20h59.35.096,arm3_eps,2022.2.5,Win32,58.46585594,615a0c65241737f2dece4771,64c7fed44a04f777bb1e18ce,64c801708a29f4ecb9763be2,right,-1,0.75,0.2429,-2,0.007105277,0.1762,49,0,49,0,1,,,,,,,,,,
space,10.7695,989492,001,2023-07-31_20h59.35.096,arm3_eps,2022.2.5,Win32,58.46585594,615a0c65241737f2dece4771,64c7fed44a04f777bb1e18ce,64c801708a29f4ecb9763be2,,,,,,,,,,,,,,,,,,,,,,
space,10.2205,989492,001,2023-07-31_20h59.35.096,arm3_eps,2022.2.5,Win32,58.46585594,615a0c65241737f2dece4771,64c7fed44a04f777bb1e18ce,64c801708a29f4ecb9763be2,,,,,,,,,,,,,,,,,,,,,,
space,2.027,989492,001,2023-07-31_20h59.35.096,arm3_eps,2022.2.5,Win32,58.46585594,615a0c65241737f2dece4771,64c7fed44a04f777bb1e18ce,64c801708a29f4ecb9763be2,,,,,,,,,,,,,,,,,,,,,,
,,989492,001,2023-07-31_20h59.35.096,arm3_eps,2022.2.5,Win32,58.46585594,615a0c65241737f2dece4771,64c7fed44a04f777bb1e18ce,64c801708a29f4ecb9763be2,right,-1,0.75,0.05,0,0.016566622,2.7171,0,0,0,0,1,,,,,,,,,,
,,989492,001,2023-07-31_20h59.35.096,arm3_eps,2022.2.5,Win32,58.46585594,615a0c65241737f2dece4771,64c7fed44a04f777bb1e18ce,64c801708a29f4ecb9763be2,right,-1,0.75,0.05,0,0.016144572,0.2178,1,0,1,0,1,,,,,,,,,,
,,989492,001,2023-07-31_20h59.35.096,arm3_eps,2022.2.5,Win32,58.46585594,615a0c65241737f2dece4771,64c7fed44a04f777bb1e18ce,64c801708a29f4ecb9763be2,right,-1,0.75,0.05,0,0.018764963,0.1428,2,0,2,0,1,,,,,,,,,,
,,989492,001,2023-07-31_20h59.35.096,arm3_eps,2022.2.5,Win32,58.46585594,615a0c65241737f2dece4771,64c7fed44a04f777bb1e18ce,64c801708a29f4ecb9763be2,right,-1,0.75,0.05,0,0.032573348,0.1397,3,0,3,0,1,,,,,,,,,,
,,989492,001,2023-07-31_20h59.35.096,arm3_eps,2022.2.5,Win32,58.46585594,615a0c65241737f2dece4771,64c7fed44a04f777bb1e18ce,64c801708a29f4ecb9763be2,right,-1,0.75,0.05,0,-0.009256654,0.2189,4,0,4,0,1,,,,,,,,,,
,,989492,001,2023-07-31_20h59.35.096,arm3_eps,2022.2.5,Win32,58.46585594,615a0c65241737f2dece4771,64c7fed44a04f777bb1e18ce,64c801708a29f4ecb9763be2,right,-1,0.75,0.05,0,0.007716539,0.274,5,0,5,0,1,,,,,,,,,,
,,989492,001,2023-07-31_20h59.35.096,arm3_eps,2022.2.5,Win32,58.46585594,615a0c65241737f2dece4771,64c7fed44a04f777bb1e18ce,64c801708a29f4ecb9763be2,right,-1,0.75,0.05,0,0.020171808,0.2781,6,0,6,0,1,,,,,,,,,,
,,989492,001,2023-07-31_20h59.35.096,arm3_eps,2022.2.5,Win32,58.46585594,615a0c65241737f2dece4771,64c7fed44a04f777bb1e18ce,64c801708a29f4ecb9763be2,right,-1,0.75,0.05,0,0.060672541,0.4018,7,0,7,0,1,,,,,,,,,,
,,989492,001,2023-07-31_20h59.35.096,arm3_eps,2022.2.5,Win32,58.46585594,615a0c65241737f2dece4771,64c7fed44a04f777bb1e18ce,64c801708a29f4ecb9763be2,right,-1,0.75,0.05,0,0.058809158,0.4214,8,0,8,0,1,,,,,,,,,,
,,989492,001,2023-07-31_20h59.35.096,arm3_eps,2022.2.5,Win32,58.46585594,615a0c65241737f2dece4771,64c7fed44a04f777bb1e18ce,64c801708a29f4ecb9763be2,right,-1,0.75,0.05,0,0.032429869,0.4399,9,0,9,0,1,,,,,,,,,,
,,989492,001,2023-07-31_20h59.35.096,arm3_eps,2022.2.5,Win32,58.46585594,615a0c65241737f2dece4771,64c7fed44a04f777bb1e18ce,64c801708a29f4ecb9763be2,right,-1,0.75,0.05,0,0.038722628,0.7023,10,0,10,0,1,,,,,,,,,,
,,989492,001,2023-07-31_20h59.35.096,arm3_eps,2022.2.5,Win32,58.46585594,615a0c65241737f2dece4771,64c7fed44a04f777bb1e18ce,64c801708a29f4ecb9763be2,right,-1,0.75,0.05,0,0.09753971,0.6725,11,0,11,0,1,,,,,,,,,,
,,989492,001,2023-07-31_20h59.35.096,arm3_eps,2022.2.5,Win32,58.46585594,615a0c65241737f2dece4771,64c7fed44a04f777bb1e18ce,64c801708a29f4ecb9763be2,up,-1,0.75,0.05,-1,0,0.6642,12,0,12,0,1,,,,,,,,,,
,,989492,001,2023-07-31_20h59.35.096,arm3_eps,2022.2.5,Win32,58.46585594,615a0c65241737f2dece4771,64c7fed44a04f777bb1e18ce,64c801708a29f4ecb9763be2,right,-1,0.75,0.05,-1,-0.003056844,2.6979,13,0,13,0,1,,,,,,,,,,
,,989492,001,2023-07-31_20h59.35.096,arm3_eps,2022.2.5,Win32,58.46585594,615a0c65241737f2dece4771,64c7fed44a04f777bb1e18ce,64c801708a29f4ecb9763be2,right,-1,0.75,0.05,-1,-0.024110227,0.1375,14,0,14,0,1,,,,,,,,,,
,,989492,001,2023-07-31_20h59.35.096,arm3_eps,2022.2.5,Win32,58.46585594,615a0c65241737f2dece4771,64c7fed44a04f777bb1e18ce,64c801708a29f4ecb9763be2,right,-1,0.75,0.05,-1,-0.031856084,0.1341,15,0,15,0,1,,,,,,,,,,
,,989492,001,2023-07-31_20h59.35.096,arm3_eps,2022.2.5,Win32,58.46585594,615a0c65241737f2dece4771,64c7fed44a04f777bb1e18ce,64c801708a29f4ecb9763be2,right,-1,0.75,0.05,-1,-0.06415769,0.1554,16,0,16,0,1,,,,,,,,,,
,,989492,001,2023-07-31_20h59.35.096,arm3_eps,2022.2.5,Win32,58.46585594,615a0c65241737f2dece4771,64c7fed44a04f777bb1e18ce,64c801708a29f4ecb9763be2,right,-1,0.75,0.05,-1,-0.093685365,0.1833,17,0,17,0,1,,,,,,,,,,
,,989492,001,2023-07-31_20h59.35.096,arm3_eps,2022.2.5,Win32,58.46585594,615a0c65241737f2dece4771,64c7fed44a04f777bb1e18ce,64c801708a29f4ecb9763be2,right,-1,0.75,0.05,-1,-0.094839675,0.1327,18,0,18,0,1,,,,,,,,,,
,,989492,001,2023-07-31_20h59.35.096,arm3_eps,2022.2.5,Win32,58.46585594,615a0c65241737f2dece4771,64c7fed44a04f777bb1e18ce,64c801708a29f4ecb9763be2,right,-1,0.75,0.05,-1,-0.107686761,0.1739,19,0,19,0,1,,,,,,,,,,
,,989492,001,2023-07-31_20h59.35.096,arm3_eps,2022.2.5,Win32,58.46585594,615a0c65241737f2dece4771,64c7fed44a04f777bb1e18ce,64c801708a29f4ecb9763be2,right,-1,0.75,0.05,-1,-0.121176181,0.1385,20,0,20,0,1,,,,,,,,,,
,,989492,001,2023-07-31_20h59.35.096,arm3_eps,2022.2.5,Win32,58.46585594,615a0c65241737f2dece4771,64c7fed44a04f777bb1e18ce,64c801708a29f4ecb9763be2,right,-1,0.75,0.05,-1,-0.130441357,0.1146,21,0,21,0,1,,,,,,,,,,
,,989492,001,2023-07-31_20h59.35.096,arm3_eps,2022.2.5,Win32,58.46585594,615a0c65241737f2dece4771,64c7fed44a04f777bb1e18ce,64c801708a29f4ecb9763be2,right,-1,0.75,0.05,-1,-0.128868798,0.1349,22,0,22,0,1,,,,,,,,,,
,,989492,001,2023-07-31_20h59.35.096,arm3_eps,2022.2.5,Win32,58.46585594,615a0c65241737f2dece4771,64c7fed44a04f777bb1e18ce,64c801708a29f4ecb9763be2,right,-1,0.75,0.05,-1,-0.108787402,0.1815,23,0,23,0,1,,,,,,,,,,
,,989492,001,2023-07-31_20h59.35.096,arm3_eps,2022.2.5,Win32,58.46585594,615a0c65241737f2dece4771,64c7fed44a04f777bb1e18ce,64c801708a29f4ecb9763be2,right,-1,0.75,0.05,-1,-0.128647857,0.1957,24,0,24,0,1,,,,,,,,,,
,,989492,001,2023-07-31_20h59.35.096,arm3_eps,2022.2.5,Win32,58.46585594,615a0c65241737f2dece4771,64c7fed44a04f777bb1e18ce,64c801708a29f4ecb9763be2,down,-1,0.75,0.05,0,0,0.6853,25,0,25,0,1,,,,,,,,,,
,,989492,001,2023-07-31_20h59.35.096,arm3_eps,2022.2.5,Win32,58.46585594,615a0c65241737f2dece4771,64c7fed44a04f777bb1e18ce,64c801708a29f4ecb9763be2,right,-1,0.75,0.05,0,-0.090087259,1.0051,26,0,26,0,1,,,,,,,,,,
,,989492,001,2023-07-31_20h59.35.096,arm3_eps,2022.2.5,Win32,58.46585594,615a0c65241737f2dece4771,64c7fed44a04f777bb1e18ce,64c801708a29f4ecb9763be2,right,-1,0.75,0.05,0,-0.105052415,0.1736,27,0,27,0,1,,,,,,,,,,
,,989492,001,2023-07-31_20h59.35.096,arm3_eps,2022.2.5,Win32,58.46585594,615a0c65241737f2dece4771,64c7fed44a04f777bb1e18ce,64c801708a29f4ecb9763be2,right,-1,0.75,0.05,0,-0.115310747,0.1609,28,0,28,0,1,,,,,,,,,,
,,989492,001,2023-07-31_20h59.35.096,arm3_eps,2022.2.5,Win32,58.46585594,615a0c65241737f2dece4771,64c7fed44a04f777bb1e18ce,64c801708a29f4ecb9763be2,right,-1,0.75,0.05,0,-0.081778526,0.0821,29,0,29,0,1,,,,,,,,,,
,,989492,001,2023-07-31_20h59.35.096,arm3_eps,2022.2.5,Win32,58.46585594,615a0c65241737f2dece4771,64c7fed44a04f777bb1e18ce,64c801708a29f4ecb9763be2,right,-1,0.75,0.05,0,-0.103116587,0.1742,30,0,30,0,1,,,,,,,,,,
,,989492,001,2023-07-31_20h59.35.096,arm3_eps,2022.2.5,Win32,58.46585594,615a0c65241737f2dece4771,64c7fed44a04f777bb1e18ce,64c801708a29f4ecb9763be2,right,-1,0.75,0.05,0,-0.090889392,0.1992,31,0,31,0,1,,,,,,,,,,
,,989492,001,2023-07-31_20h59.35.096,arm3_eps,2022.2.5,Win32,58.46585594,615a0c65241737f2dece4771,64c7fed44a04f777bb1e18ce,64c801708a29f4ecb9763be2,right,-1,0.75,0.05,0,-0.119789086,0.2372,32,0,32,0,1,,,,,,,,,,
,,989492,001,2023-07-31_20h59.35.096,arm3_eps,2022.2.5,Win32,58.46585594,615a0c65241737f2dece4771,64c7fed44a04f777bb1e18ce,64c801708a29f4ecb9763be2,right,-1,0.75,0.05,0,-0.096946872,0.1471,33,0,33,0,1,,,,,,,,,,
,,989492,001,2023-07-31_20h59.35.096,arm3_eps,2022.2.5,Win32,58.46585594,615a0c65241737f2dece4771,64c7fed44a04f777bb1e18ce,64c801708a29f4ecb9763be2,right,-1,0.75,0.05,0,-0.109882926,0.175,34,0,34,0,1,,,,,,,,,,
,,989492,001,2023-07-31_20h59.35.096,arm3_eps,2022.2.5,Win32,58.46585594,615a0c65241737f2dece4771,64c7fed44a04f777bb1e18ce,64c801708a29f4ecb9763be2,right,-1,0.75,0.05,0,-0.12314745,0.1705,35,0,35,0,1,,,,,,,,,,
,,989492,001,2023-07-31_20h59.35.096,arm3_eps,2022.2.5,Win32,58.46585594,615a0c65241737f2dece4771,64c7fed44a04f777bb1e18ce,64c801708a29f4ecb9763be2,right,-1,0.75,0.05,0,-0.142403437,0.1744,36,0,36,0,1,,,,,,,,,,
,,989492,001,2023-07-31_20h59.35.096,arm3_eps,2022.2.5,Win32,58.46585594,615a0c65241737f2dece4771,64c7fed44a04f777bb1e18ce,64c801708a29f4ecb9763be2,right,-1,0.75,0.05,0,-0.121890148,0.5213,37,0,37,0,1,,,,,,,,,,
,,989492,001,2023-07-31_20h59.35.096,arm3_eps,2022.2.5,Win32,58.46585594,615a0c65241737f2dece4771,64c7fed44a04f777bb1e18ce,64c801708a29f4ecb9763be2,up,-1,0.75,0.05,0,0,0.9732,38,0,38,0,1,,,,,,,,,,
,,989492,001,2023-07-31_20h59.35.096,arm3_eps,2022.2.5,Win32,58.46585594,615a0c65241737f2dece4771,64c7fed44a04f777bb1e18ce,64c801708a29f4ecb9763be2,right,-1,0.75,0.05,0,-0.012774482,2.361,39,0,39,0,1,,,,,,,,,,
,,989492,001,2023-07-31_20h59.35.096,arm3_eps,2022.2.5,Win32,58.46585594,615a0c65241737f2dece4771,64c7fed44a04f777bb1e18ce,64c801708a29f4ecb9763be2,right,-1,0.75,0.05,0,-0.0116394,0.0108,40,0,40,0,1,,,,,,,,,,
,,989492,001,2023-07-31_20h59.35.096,arm3_eps,2022.2.5,Win32,58.46585594,615a0c65241737f2dece4771,64c7fed44a04f777bb1e18ce,64c801708a29f4ecb9763be2,right,-1,0.75,0.05,0,-0.031470776,0.1856,41,0,41,0,1,,,,,,,,,,
,,989492,001,2023-07-31_20h59.35.096,arm3_eps,2022.2.5,Win32,58.46585594,615a0c65241737f2dece4771,64c7fed44a04f777bb1e18ce,64c801708a29f4ecb9763be2,right,-1,0.75,0.05,0,-0.025727752,0.152,42,0,42,0,1,,,,,,,,,,
,,989492,001,2023-07-31_20h59.35.096,arm3_eps,2022.2.5,Win32,58.46585594,615a0c65241737f2dece4771,64c7fed44a04f777bb1e18ce,64c801708a29f4ecb9763be2,right,-1,0.75,0.05,0,-0.046632942,0.0869,43,0,43,0,1,,,,,,,,,,
,,989492,001,2023-07-31_20h59.35.096,arm3_eps,2022.2.5,Win32,58.46585594,615a0c65241737f2dece4771,64c7fed44a04f777bb1e18ce,64c801708a29f4ecb9763be2,right,-1,0.75,0.05,0,-0.049377386,0.091,44,0,44,0,1,,,,,,,,,,
,,989492,001,2023-07-31_20h59.35.096,arm3_eps,2022.2.5,Win32,58.46585594,615a0c65241737f2dece4771,64c7fed44a04f777bb1e18ce,64c801708a29f4ecb9763be2,right,-1,0.75,0.05,0,-0.044556597,0.1744,45,0,45,0,1,,,,,,,,,,
,,989492,001,2023-07-31_20h59.35.096,arm3_eps,2022.2.5,Win32,58.46585594,615a0c65241737f2dece4771,64c7fed44a04f777bb1e18ce,64c801708a29f4ecb9763be2,right,-1,0.75,0.05,0,-0.043960067,0.193,46,0,46,0,1,,,,,,,,,,
,,989492,001,2023-07-31_20h59.35.096,arm3_eps,2022.2.5,Win32,58.46585594,615a0c65241737f2dece4771,64c7fed44a04f777bb1e18ce,64c801708a29f4ecb9763be2,right,-1,0.75,0.05,0,-0.024563411,0.5725,47,0,47,0,1,,,,,,,,,,
,,989492,001,2023-07-31_20h59.35.096,arm3_eps,2022.2.5,Win32,58.46585594,615a0c65241737f2dece4771,64c7fed44a04f777bb1e18ce,64c801708a29f4ecb9763be2,right,-1,0.75,0.05,0,-0.02881841,0.4219,48,0,48,0,1,,,,,,,,,,
,,989492,001,2023-07-31_20h59.35.096,arm3_eps,2022.2.5,Win32,58.46585594,615a0c65241737f2dece4771,64c7fed44a04f777bb1e18ce,64c801708a29f4ecb9763be2,right,-1,0.75,0.05,0,-0.054270046,0.3995,49,0,49,0,1,,,,,,,,,,
space,3.161,989492,001,2023-07-31_20h59.35.096,arm3_eps,2022.2.5,Win32,58.46585594,615a0c65241737f2dece4771,64c7fed44a04f777bb1e18ce,64c801708a29f4ecb9763be2,,,,,,,,,,,,,,,,,,,,,,
space,1.0796,989492,001,2023-07-31_20h59.35.096,arm3_eps,2022.2.5,Win32,58.46585594,615a0c65241737f2dece4771,64c7fed44a04f777bb1e18ce,64c801708a29f4ecb9763be2,,,,,,,,,,,,,,,,,,,,,,
,,989492,001,2023-07-31_20h59.35.096,arm3_eps,2022.2.5,Win32,58.46585594,615a0c65241737f2dece4771,64c7fed44a04f777bb1e18ce,64c801708a29f4ecb9763be2,right,-1,0.75,0.5,0,-0.004710057,0.9787,0,0,0,0,1,,,,,,,,,,
,,989492,001,2023-07-31_20h59.35.096,arm3_eps,2022.2.5,Win32,58.46585594,615a0c65241737f2dece4771,64c7fed44a04f777bb1e18ce,64c801708a29f4ecb9763be2,right,-1,0.75,0.5,0,-0.037979546,0.1263,1,0,1,0,1,,,,,,,,,,
,,989492,001,2023-07-31_20h59.35.096,arm3_eps,2022.2.5,Win32,58.46585594,615a0c65241737f2dece4771,64c7fed44a04f777bb1e18ce,64c801708a29f4ecb9763be2,right,-1,0.75,0.5,0,-0.044394619,0.175,2,0,2,0,1,,,,,,,,,,
,,989492,001,2023-07-31_20h59.35.096,arm3_eps,2022.2.5,Win32,58.46585594,615a0c65241737f2dece4771,64c7fed44a04f777bb1e18ce,64c801708a29f4ecb9763be2,right,-1,0.75,0.5,0,-0.058737802,0.1717,3,0,3,0,1,,,,,,,,,,
,,989492,001,2023-07-31_20h59.35.096,arm3_eps,2022.2.5,Win32,58.46585594,615a0c65241737f2dece4771,64c7fed44a04f777bb1e18ce,64c801708a29f4ecb9763be2,right,-1,0.75,0.5,0,-0.109736619,0.0923,4,0,4,0,1,,,,,,,,,,
,,989492,001,2023-07-31_20h59.35.096,arm3_eps,2022.2.5,Win32,58.46585594,615a0c65241737f2dece4771,64c7fed44a04f777bb1e18ce,64c801708a29f4ecb9763be2,right,-1,0.75,0.5,0,-0.1541262,0.1904,5,0,5,0,1,,,,,,,,,,
,,989492,001,2023-07-31_20h59.35.096,arm3_eps,2022.2.5,Win32,58.46585594,615a0c65241737f2dece4771,64c7fed44a04f777bb1e18ce,64c801708a29f4ecb9763be2,right,-1,0.75,0.5,0,-0.172720535,0.1771,6,0,6,0,1,,,,,,,,,,
,,989492,001,2023-07-31_20h59.35.096,arm3_eps,2022.2.5,Win32,58.46585594,615a0c65241737f2dece4771,64c7fed44a04f777bb1e18ce,64c801708a29f4ecb9763be2,right,-1,0.75,0.5,0,-0.177358119,0.1742,7,0,7,0,1,,,,,,,,,,
,,989492,001,2023-07-31_20h59.35.096,arm3_eps,2022.2.5,Win32,58.46585594,615a0c65241737f2dece4771,64c7fed44a04f777bb1e18ce,64c801708a29f4ecb9763be2,right,-1,0.75,0.5,0,-0.184154924,0.1571,8,0,8,0,1,,,,,,,,,,
,,989492,001,2023-07-31_20h59.35.096,arm3_eps,2022.2.5,Win32,58.46585594,615a0c65241737f2dece4771,64c7fed44a04f777bb1e18ce,64c801708a29f4ecb9763be2,right,-1,0.75,0.5,0,-0.188546709,0.4696,9,0,9,0,1,,,,,,,,,,
,,989492,001,2023-07-31_20h59.35.096,arm3_eps,2022.2.5,Win32,58.46585594,615a0c65241737f2dece4771,64c7fed44a04f777bb1e18ce,64c801708a29f4ecb9763be2,right,-1,0.75,0.5,0,-0.203899829,0.412,10,0,10,0,1,,,,,,,,,,
,,989492,001,2023-07-31_20h59.35.096,arm3_eps,2022.2.5,Win32,58.46585594,615a0c65241737f2dece4771,64c7fed44a04f777bb1e18ce,64c801708a29f4ecb9763be2,right,-1,0.75,0.5,0,-0.208884769,0.4573,11,0,11,0,1,,,,,,,,,,
,,989492,001,2023-07-31_20h59.35.096,arm3_eps,2022.2.5,Win32,58.46585594,615a0c65241737f2dece4771,64c7fed44a04f777bb1e18ce,64c801708a29f4ecb9763be2,down,1,0.75,0.5,1,0,0.9425,12,0,12,0,1,,,,,,,,,,
,,989492,001,2023-07-31_20h59.35.096,arm3_eps,2022.2.5,Win32,58.46585594,615a0c65241737f2dece4771,64c7fed44a04f777bb1e18ce,64c801708a29f4ecb9763be2,right,1,0.75,0.5,1,-0.045504921,0.9034,13,0,13,0,1,,,,,,,,,,
,,989492,001,2023-07-31_20h59.35.096,arm3_eps,2022.2.5,Win32,58.46585594,615a0c65241737f2dece4771,64c7fed44a04f777bb1e18ce,64c801708a29f4ecb9763be2,right,1,0.75,0.5,1,-0.016235015,0.1845,14,0,14,0,1,,,,,,,,,,
,,989492,001,2023-07-31_20h59.35.096,arm3_eps,2022.2.5,Win32,58.46585594,615a0c65241737f2dece4771,64c7fed44a04f777bb1e18ce,64c801708a29f4ecb9763be2,right,1,0.75,0.5,1,-0.024158763,0.1445,15,0,15,0,1,,,,,,,,,,
,,989492,001,2023-07-31_20h59.35.096,arm3_eps,2022.2.5,Win32,58.46585594,615a0c65241737f2dece4771,64c7fed44a04f777bb1e18ce,64c801708a29f4ecb9763be2,right,1,0.75,0.5,1,-0.006996042,0.1446,16,0,16,0,1,,,,,,,,,,
,,989492,001,2023-07-31_20h59.35.096,arm3_eps,2022.2.5,Win32,58.46585594,615a0c65241737f2dece4771,64c7fed44a04f777bb1e18ce,64c801708a29f4ecb9763be2,right,1,0.75,0.5,1,0.018070578,0.0879,17,0,17,0,1,,,,,,,,,,
,,989492,001,2023-07-31_20h59.35.096,arm3_eps,2022.2.5,Win32,58.46585594,615a0c65241737f2dece4771,64c7fed44a04f777bb1e18ce,64c801708a29f4ecb9763be2,right,1,0.75,0.5,1,0.040591336,0.1372,18,0,18,0,1,,,,,,,,,,
,,989492,001,2023-07-31_20h59.35.096,arm3_eps,2022.2.5,Win32,58.46585594,615a0c65241737f2dece4771,64c7fed44a04f777bb1e18ce,64c801708a29f4ecb9763be2,right,1,0.75,0.5,1,0.046161814,0.2608,19,0,19,0,1,,,,,,,,,,
,,989492,001,2023-07-31_20h59.35.096,arm3_eps,2022.2.5,Win32,58.46585594,615a0c65241737f2dece4771,64c7fed44a04f777bb1e18ce,64c801708a29f4ecb9763be2,right,1,0.75,0.5,1,0.039528557,0.2311,20,0,20,0,1,,,,,,,,,,
,,989492,001,2023-07-31_20h59.35.096,arm3_eps,2022.2.5,Win32,58.46585594,615a0c65241737f2dece4771,64c7fed44a04f777bb1e18ce,64c801708a29f4ecb9763be2,right,1,0.75,0.5,1,0.083283839,0.1558,21,0,21,0,1,,,,,,,,,,
,,989492,001,2023-07-31_20h59.35.096,arm3_eps,2022.2.5,Win32,58.46585594,615a0c65241737f2dece4771,64c7fed44a04f777bb1e18ce,64c801708a29f4ecb9763be2,right,1,0.75,0.5,1,0.067738216,0.2254,22,0,22,0,1,,,,,,,,,,
,,989492,001,2023-07-31_20h59.35.096,arm3_eps,2022.2.5,Win32,58.46585594,615a0c65241737f2dece4771,64c7fed44a04f777bb1e18ce,64c801708a29f4ecb9763be2,right,1,0.75,0.5,1,0.036777172,0.4971,23,0,23,0,1,,,,,,,,,,
,,989492,001,2023-07-31_20h59.35.096,arm3_eps,2022.2.5,Win32,58.46585594,615a0c65241737f2dece4771,64c7fed44a04f777bb1e18ce,64c801708a29f4ecb9763be2,up,-1,0.75,0.5,1,0,1.051,24,0,24,0,1,,,,,,,,,,
,,989492,001,2023-07-31_20h59.35.096,arm3_eps,2022.2.5,Win32,58.46585594,615a0c65241737f2dece4771,64c7fed44a04f777bb1e18ce,64c801708a29f4ecb9763be2,right,-1,0.75,0.5,1,-0.011155476,1.2247,25,0,25,0,1,,,,,,,,,,
,,989492,001,2023-07-31_20h59.35.096,arm3_eps,2022.2.5,Win32,58.46585594,615a0c65241737f2dece4771,64c7fed44a04f777bb1e18ce,64c801708a29f4ecb9763be2,right,-1,0.75,0.5,1,-0.034531739,0.5307,26,0,26,0,1,,,,,,,,,,
,,989492,001,2023-07-31_20h59.35.096,arm3_eps,2022.2.5,Win32,58.46585594,615a0c65241737f2dece4771,64c7fed44a04f777bb1e18ce,64c801708a29f4ecb9763be2,right,-1,0.75,0.5,1,-0.017257817,0.1369,27,0,27,0,1,,,,,,,,,,
,,989492,001,2023-07-31_20h59.35.096,arm3_eps,2022.2.5,Win32,58.46585594,615a0c65241737f2dece4771,64c7fed44a04f777bb1e18ce,64c801708a29f4ecb9763be2,right,-1,0.75,0.5,1,-0.03440488,0.1669,28,0,28,0,1,,,,,,,,,,
,,989492,001,2023-07-31_20h59.35.096,arm3_eps,2022.2.5,Win32,58.46585594,615a0c65241737f2dece4771,64c7fed44a04f777bb1e18ce,64c801708a29f4ecb9763be2,right,-1,0.75,0.5,1,-0.0100972,0.1157,29,0,29,0,1,,,,,,,,,,
,,989492,001,2023-07-31_20h59.35.096,arm3_eps,2022.2.5,Win32,58.46585594,615a0c65241737f2dece4771,64c7fed44a04f777bb1e18ce,64c801708a29f4ecb9763be2,right,-1,0.75,0.5,1,-0.029030805,0.1229,30,0,30,0,1,,,,,,,,,,
,,989492,001,2023-07-31_20h59.35.096,arm3_eps,2022.2.5,Win32,58.46585594,615a0c65241737f2dece4771,64c7fed44a04f777bb1e18ce,64c801708a29f4ecb9763be2,right,-1,0.75,0.5,1,-0.03807423,0.16,31,0,31,0,1,,,,,,,,,,
,,989492,001,2023-07-31_20h59.35.096,arm3_eps,2022.2.5,Win32,58.46585594,615a0c65241737f2dece4771,64c7fed44a04f777bb1e18ce,64c801708a29f4ecb9763be2,right,-1,0.75,0.5,1,-0.046730087,0.2457,32,0,32,0,1,,,,,,,,,,
,,989492,001,2023-07-31_20h59.35.096,arm3_eps,2022.2.5,Win32,58.46585594,615a0c65241737f2dece4771,64c7fed44a04f777bb1e18ce,64c801708a29f4ecb9763be2,right,-1,0.75,0.5,1,-0.054817859,0.0962,33,0,33,0,1,,,,,,,,,,
,,989492,001,2023-07-31_20h59.35.096,arm3_eps,2022.2.5,Win32,58.46585594,615a0c65241737f2dece4771,64c7fed44a04f777bb1e18ce,64c801708a29f4ecb9763be2,right,-1,0.75,0.5,1,-0.052430193,0.1741,34,0,34,0,1,,,,,,,,,,
,,989492,001,2023-07-31_20h59.35.096,arm3_eps,2022.2.5,Win32,58.46585594,615a0c65241737f2dece4771,64c7fed44a04f777bb1e18ce,64c801708a29f4ecb9763be2,right,-1,0.75,0.5,1,-0.069815834,0.1771,35,0,35,0,1,,,,,,,,,,
,,989492,001,2023-07-31_20h59.35.096,arm3_eps,2022.2.5,Win32,58.46585594,615a0c65241737f2dece4771,64c7fed44a04f777bb1e18ce,64c801708a29f4ecb9763be2,right,-1,0.75,0.5,1,-0.079259908,0.3898,36,0,36,0,1,,,,,,,,,,
,,989492,001,2023-07-31_20h59.35.096,arm3_eps,2022.2.5,Win32,58.46585594,615a0c65241737f2dece4771,64c7fed44a04f777bb1e18ce,64c801708a29f4ecb9763be2,down,-1,0.75,0.5,2,0,0.6309,37,0,37,0,1,,,,,,,,,,
,,989492,001,2023-07-31_20h59.35.096,arm3_eps,2022.2.5,Win32,58.46585594,615a0c65241737f2dece4771,64c7fed44a04f777bb1e18ce,64c801708a29f4ecb9763be2,right,-1,0.75,0.5,2,-0.005594228,0.8333,38,0,38,0,1,,,,,,,,,,
,,989492,001,2023-07-31_20h59.35.096,arm3_eps,2022.2.5,Win32,58.46585594,615a0c65241737f2dece4771,64c7fed44a04f777bb1e18ce,64c801708a29f4ecb9763be2,right,-1,0.75,0.5,2,0.008443836,0.1525,39,0,39,0,1,,,,,,,,,,
,,989492,001,2023-07-31_20h59.35.096,arm3_eps,2022.2.5,Win32,58.46585594,615a0c65241737f2dece4771,64c7fed44a04f777bb1e18ce,64c801708a29f4ecb9763be2,right,-1,0.75,0.5,2,0.00492076,0.2406,40,0,40,0,1,,,,,,,,,,
,,989492,001,2023-07-31_20h59.35.096,arm3_eps,2022.2.5,Win32,58.46585594,615a0c65241737f2dece4771,64c7fed44a04f777bb1e18ce,64c801708a29f4ecb9763be2,right,-1,0.75,0.5,2,-0.013099168,0.0154,41,0,41,0,1,,,,,,,,,,
,,989492,001,2023-07-31_20h59.35.096,arm3_eps,2022.2.5,Win32,58.46585594,615a0c65241737f2dece4771,64c7fed44a04f777bb1e18ce,64c801708a29f4ecb9763be2,right,-1,0.75,0.5,2,-0.034341534,0.1906,42,0,42,0,1,,,,,,,,,,
,,989492,001,2023-07-31_20h59.35.096,arm3_eps,2022.2.5,Win32,58.46585594,615a0c65241737f2dece4771,64c7fed44a04f777bb1e18ce,64c801708a29f4ecb9763be2,right,-1,0.75,0.5,2,-0.067083177,0.142,43,0,43,0,1,,,,,,,,,,
,,989492,001,2023-07-31_20h59.35.096,arm3_eps,2022.2.5,Win32,58.46585594,615a0c65241737f2dece4771,64c7fed44a04f777bb1e18ce,64c801708a29f4ecb9763be2,right,-1,0.75,0.5,2,-0.096873368,0.2646,44,0,44,0,1,,,,,,,,,,
,,989492,001,2023-07-31_20h59.35.096,arm3_eps,2022.2.5,Win32,58.46585594,615a0c65241737f2dece4771,64c7fed44a04f777bb1e18ce,64c801708a29f4ecb9763be2,right,-1,0.75,0.5,2,-0.106915248,0.0851,45,0,45,0,1,,,,,,,,,,
,,989492,001,2023-07-31_20h59.35.096,arm3_eps,2022.2.5,Win32,58.46585594,615a0c65241737f2dece4771,64c7fed44a04f777bb1e18ce,64c801708a29f4ecb9763be2,right,-1,0.75,0.5,2,-0.097621066,0.1996,46,0,46,0,1,,,,,,,,,,
,,989492,001,2023-07-31_20h59.35.096,arm3_eps,2022.2.5,Win32,58.46585594,615a0c65241737f2dece4771,64c7fed44a04f777bb1e18ce,64c801708a29f4ecb9763be2,right,-1,0.75,0.5,2,-0.115904272,0.4488,47,0,47,0,1,,,,,,,,,,
,,989492,001,2023-07-31_20h59.35.096,arm3_eps,2022.2.5,Win32,58.46585594,615a0c65241737f2dece4771,64c7fed44a04f777bb1e18ce,64c801708a29f4ecb9763be2,right,-1,0.75,0.5,2,-0.142057503,0.3863,48,0,48,0,1,,,,,,,,,,
,,989492,001,2023-07-31_20h59.35.096,arm3_eps,2022.2.5,Win32,58.46585594,615a0c65241737f2dece4771,64c7fed44a04f777bb1e18ce,64c801708a29f4ecb9763be2,right,-1,0.75,0.5,2,-0.164195978,0.4912,49,0,49,0,1,,,,,,,,,,
space,2.2485,989492,001,2023-07-31_20h59.35.096,arm3_eps,2022.2.5,Win32,58.46585594,615a0c65241737f2dece4771,64c7fed44a04f777bb1e18ce,64c801708a29f4ecb9763be2,,,,,,,,,,,,,,,,,,,,,,
space,4.9957,989492,001,2023-07-31_20h59.35.096,arm3_eps,2022.2.5,Win32,58.46585594,615a0c65241737f2dece4771,64c7fed44a04f777bb1e18ce,64c801708a29f4ecb9763be2,right,-1,0.75,0.1786,0,-0.008068149,1.2371,,,,,,0,0,0,0,1,,,,,
,,989492,001,2023-07-31_20h59.35.096,arm3_eps,2022.2.5,Win32,58.46585594,615a0c65241737f2dece4771,64c7fed44a04f777bb1e18ce,64c801708a29f4ecb9763be2,right,-1,0.75,0.1786,0,-0.017869492,0.0947,,,,,,1,0,1,0,1,,,,,
,,989492,001,2023-07-31_20h59.35.096,arm3_eps,2022.2.5,Win32,58.46585594,615a0c65241737f2dece4771,64c7fed44a04f777bb1e18ce,64c801708a29f4ecb9763be2,right,-1,0.75,0.1786,0,-0.044103388,0.1789,,,,,,2,0,2,0,1,,,,,
,,989492,001,2023-07-31_20h59.35.096,arm3_eps,2022.2.5,Win32,58.46585594,615a0c65241737f2dece4771,64c7fed44a04f777bb1e18ce,64c801708a29f4ecb9763be2,right,-1,0.75,0.1786,0,-0.03483418,0.1237,,,,,,3,0,3,0,1,,,,,
,,989492,001,2023-07-31_20h59.35.096,arm3_eps,2022.2.5,Win32,58.46585594,615a0c65241737f2dece4771,64c7fed44a04f777bb1e18ce,64c801708a29f4ecb9763be2,right,-1,0.75,0.1786,0,-0.03347012,0.1551,,,,,,4,0,4,0,1,,,,,
,,989492,001,2023-07-31_20h59.35.096,arm3_eps,2022.2.5,Win32,58.46585594,615a0c65241737f2dece4771,64c7fed44a04f777bb1e18ce,64c801708a29f4ecb9763be2,right,-1,0.75,0.1786,0,-0.055054875,0.133,,,,,,5,0,5,0,1,,,,,
,,989492,001,2023-07-31_20h59.35.096,arm3_eps,2022.2.5,Win32,58.46585594,615a0c65241737f2dece4771,64c7fed44a04f777bb1e18ce,64c801708a29f4ecb9763be2,right,-1,0.75,0.1786,0,-0.064616643,0.1231,,,,,,6,0,6,0,1,,,,,
,,989492,001,2023-07-31_20h59.35.096,arm3_eps,2022.2.5,Win32,58.46585594,615a0c65241737f2dece4771,64c7fed44a04f777bb1e18ce,64c801708a29f4ecb9763be2,right,-1,0.75,0.1786,0,-0.084242789,0.3568,,,,,,7,0,7,0,1,,,,,
,,989492,001,2023-07-31_20h59.35.096,arm3_eps,2022.2.5,Win32,58.46585594,615a0c65241737f2dece4771,64c7fed44a04f777bb1e18ce,64c801708a29f4ecb9763be2,right,-1,0.75,0.1786,0,-0.087360304,0.218,,,,,,8,0,8,0,1,,,,,
,,989492,001,2023-07-31_20h59.35.096,arm3_eps,2022.2.5,Win32,58.46585594,615a0c65241737f2dece4771,64c7fed44a04f777bb1e18ce,64c801708a29f4ecb9763be2,right,-1,0.75,0.1786,0,-0.087167714,0.3104,,,,,,9,0,9,0,1,,,,,
,,989492,001,2023-07-31_20h59.35.096,arm3_eps,2022.2.5,Win32,58.46585594,615a0c65241737f2dece4771,64c7fed44a04f777bb1e18ce,64c801708a29f4ecb9763be2,right,-1,0.75,0.1786,0,-0.115125838,0.4736,,,,,,10,0,10,0,1,,,,,
,,989492,001,2023-07-31_20h59.35.096,arm3_eps,2022.2.5,Win32,58.46585594,615a0c65241737f2dece4771,64c7fed44a04f777bb1e18ce,64c801708a29f4ecb9763be2,down,-1,0.75,0.1786,1,0,1.1345,,,,,,11,0,11,0,1,,,,,
,,989492,001,2023-07-31_20h59.35.096,arm3_eps,2022.2.5,Win32,58.46585594,615a0c65241737f2dece4771,64c7fed44a04f777bb1e18ce,64c801708a29f4ecb9763be2,right,-1,0.75,0.1786,1,0.007389393,0.9567,,,,,,12,0,12,0,1,,,,,
,,989492,001,2023-07-31_20h59.35.096,arm3_eps,2022.2.5,Win32,58.46585594,615a0c65241737f2dece4771,64c7fed44a04f777bb1e18ce,64c801708a29f4ecb9763be2,right,-1,0.75,0.1786,1,-0.00821478,0.1221,,,,,,13,0,13,0,1,,,,,
,,989492,001,2023-07-31_20h59.35.096,arm3_eps,2022.2.5,Win32,58.46585594,615a0c65241737f2dece4771,64c7fed44a04f777bb1e18ce,64c801708a29f4ecb9763be2,right,-1,0.75,0.1786,1,-0.001598387,0.062,,,,,,14,0,14,0,1,,,,,
,,989492,001,2023-07-31_20h59.35.096,arm3_eps,2022.2.5,Win32,58.46585594,615a0c65241737f2dece4771,64c7fed44a04f777bb1e18ce,64c801708a29f4ecb9763be2,right,-1,0.75,0.1786,1,-0.053679107,0.0375,,,,,,15,0,15,0,1,,,,,
,,989492,001,2023-07-31_20h59.35.096,arm3_eps,2022.2.5,Win32,58.46585594,615a0c65241737f2dece4771,64c7fed44a04f777bb1e18ce,64c801708a29f4ecb9763be2,right,-1,0.75,0.1786,1,-0.066392693,0.0172,,,,,,16,0,16,0,1,,,,,
,,989492,001,2023-07-31_20h59.35.096,arm3_eps,2022.2.5,Win32,58.46585594,615a0c65241737f2dece4771,64c7fed44a04f777bb1e18ce,64c801708a29f4ecb9763be2,right,-1,0.75,0.1786,1,-0.093068149,0.1096,,,,,,17,0,17,0,1,,,,,
,,989492,001,2023-07-31_20h59.35.096,arm3_eps,2022.2.5,Win32,58.46585594,615a0c65241737f2dece4771,64c7fed44a04f777bb1e18ce,64c801708a29f4ecb9763be2,right,-1,0.75,0.1786,1,-0.119266834,0.2143,,,,,,18,0,18,0,1,,,,,
,,989492,001,2023-07-31_20h59.35.096,arm3_eps,2022.2.5,Win32,58.46585594,615a0c65241737f2dece4771,64c7fed44a04f777bb1e18ce,64c801708a29f4ecb9763be2,right,-1,0.75,0.1786,1,-0.147388636,0.1772,,,,,,19,0,19,0,1,,,,,
,,989492,001,2023-07-31_20h59.35.096,arm3_eps,2022.2.5,Win32,58.46585594,615a0c65241737f2dece4771,64c7fed44a04f777bb1e18ce,64c801708a29f4ecb9763be2,right,-1,0.75,0.1786,1,-0.148545645,0.3278,,,,,,20,0,20,0,1,,,,,
,,989492,001,2023-07-31_20h59.35.096,arm3_eps,2022.2.5,Win32,58.46585594,615a0c65241737f2dece4771,64c7fed44a04f777bb1e18ce,64c801708a29f4ecb9763be2,right,-1,0.75,0.1786,1,-0.149620501,0.2531,,,,,,21,0,21,0,1,,,,,
,,989492,001,2023-07-31_20h59.35.096,arm3_eps,2022.2.5,Win32,58.46585594,615a0c65241737f2dece4771,64c7fed44a04f777bb1e18ce,64c801708a29f4ecb9763be2,right,-1,0.75,0.1786,1,-0.159969973,0.4672,,,,,,22,0,22,0,1,,,,,
,,989492,001,2023-07-31_20h59.35.096,arm3_eps,2022.2.5,Win32,58.46585594,615a0c65241737f2dece4771,64c7fed44a04f777bb1e18ce,64c801708a29f4ecb9763be2,down,-1,0.75,0.1786,1,0,1.0641,,,,,,23,0,23,0,1,,,,,
,,989492,001,2023-07-31_20h59.35.096,arm3_eps,2022.2.5,Win32,58.46585594,615a0c65241737f2dece4771,64c7fed44a04f777bb1e18ce,64c801708a29f4ecb9763be2,right,-1,0.75,0.1786,1,-0.00635213,0.9861,,,,,,24,0,24,0,1,,,,,
,,989492,001,2023-07-31_20h59.35.096,arm3_eps,2022.2.5,Win32,58.46585594,615a0c65241737f2dece4771,64c7fed44a04f777bb1e18ce,64c801708a29f4ecb9763be2,right,-1,0.75,0.1786,1,-0.016063295,0.1864,,,,,,25,0,25,0,1,,,,,
,,989492,001,2023-07-31_20h59.35.096,arm3_eps,2022.2.5,Win32,58.46585594,615a0c65241737f2dece4771,64c7fed44a04f777bb1e18ce,64c801708a29f4ecb9763be2,right,-1,0.75,0.1786,1,-0.002572359,0.1177,,,,,,26,0,26,0,1,,,,,
,,989492,001,2023-07-31_20h59.35.096,arm3_eps,2022.2.5,Win32,58.46585594,615a0c65241737f2dece4771,64c7fed44a04f777bb1e18ce,64c801708a29f4ecb9763be2,right,-1,0.75,0.1786,1,-0.033796634,0.1882,,,,,,27,0,27,0,1,,,,,
,,989492,001,2023-07-31_20h59.35.096,arm3_eps,2022.2.5,Win32,58.46585594,615a0c65241737f2dece4771,64c7fed44a04f777bb1e18ce,64c801708a29f4ecb9763be2,right,-1,0.75,0.1786,1,-0.048706654,0.1997,,,,,,28,0,28,0,1,,,,,
,,989492,001,2023-07-31_20h59.35.096,arm3_eps,2022.2.5,Win32,58.46585594,615a0c65241737f2dece4771,64c7fed44a04f777bb1e18ce,64c801708a29f4ecb9763be2,right,-1,0.75,0.1786,1,-0.007869414,0.1396,,,,,,29,0,29,0,1,,,,,
,,989492,001,2023-07-31_20h59.35.096,arm3_eps,2022.2.5,Win32,58.46585594,615a0c65241737f2dece4771,64c7fed44a04f777bb1e18ce,64c801708a29f4ecb9763be2,right,-1,0.75,0.1786,1,-0.017690319,0.1801,,,,,,30,0,30,0,1,,,,,
,,989492,001,2023-07-31_20h59.35.096,arm3_eps,2022.2.5,Win32,58.46585594,615a0c65241737f2dece4771,64c7fed44a04f777bb1e18ce,64c801708a29f4ecb9763be2,right,-1,0.75,0.1786,1,-0.037017697,0.2292,,,,,,31,0,31,0,1,,,,,
,,989492,001,2023-07-31_20h59.35.096,arm3_eps,2022.2.5,Win32,58.46585594,615a0c65241737f2dece4771,64c7fed44a04f777bb1e18ce,64c801708a29f4ecb9763be2,right,-1,0.75,0.1786,1,-0.039323102,0.1692,,,,,,32,0,32,0,1,,,,,
,,989492,001,2023-07-31_20h59.35.096,arm3_eps,2022.2.5,Win32,58.46585594,615a0c65241737f2dece4771,64c7fed44a04f777bb1e18ce,64c801708a29f4ecb9763be2,right,-1,0.75,0.1786,1,-0.058660907,0.2218,,,,,,33,0,33,0,1,,,,,
,,989492,001,2023-07-31_20h59.35.096,arm3_eps,2022.2.5,Win32,58.46585594,615a0c65241737f2dece4771,64c7fed44a04f777bb1e18ce,64c801708a29f4ecb9763be2,right,-1,0.75,0.1786,1,-0.054979787,0.4634,,,,,,34,0,34,0,1,,,,,
,,989492,001,2023-07-31_20h59.35.096,arm3_eps,2022.2.5,Win32,58.46585594,615a0c65241737f2dece4771,64c7fed44a04f777bb1e18ce,64c801708a29f4ecb9763be2,right,-1,0.75,0.1786,1,-0.043920582,0.3682,,,,,,35,0,35,0,1,,,,,
,,989492,001,2023-07-31_20h59.35.096,arm3_eps,2022.2.5,Win32,58.46585594,615a0c65241737f2dece4771,64c7fed44a04f777bb1e18ce,64c801708a29f4ecb9763be2,up,-1,0.75,0.1786,0,0,1.0693,,,,,,36,0,36,0,1,,,,,
,,989492,001,2023-07-31_20h59.35.096,arm3_eps,2022.2.5,Win32,58.46585594,615a0c65241737f2dece4771,64c7fed44a04f777bb1e18ce,64c801708a29f4ecb9763be2,right,-1,0.75,0.1786,0,-0.022739557,1.9305,,,,,,37,0,37,0,1,,,,,
,,989492,001,2023-07-31_20h59.35.096,arm3_eps,2022.2.5,Win32,58.46585594,615a0c65241737f2dece4771,64c7fed44a04f777bb1e18ce,64c801708a29f4ecb9763be2,right,-1,0.75,0.1786,0,-0.041960595,0.1973,,,,,,38,0,38,0,1,,,,,
,,989492,001,2023-07-31_20h59.35.096,arm3_eps,2022.2.5,Win32,58.46585594,615a0c65241737f2dece4771,64c7fed44a04f777bb1e18ce,64c801708a29f4ecb9763be2,right,-1,0.75,0.1786,0,-0.041636119,0.2117,,,,,,39,0,39,0,1,,,,,
,,989492,001,2023-07-31_20h59.35.096,arm3_eps,2022.2.5,Win32,58.46585594,615a0c65241737f2dece4771,64c7fed44a04f777bb1e18ce,64c801708a29f4ecb9763be2,right,-1,0.75,0.1786,0,-0.06739186,0.1668,,,,,,40,0,40,0,1,,,,,
,,989492,001,2023-07-31_20h59.35.096,arm3_eps,2022.2.5,Win32,58.46585594,615a0c65241737f2dece4771,64c7fed44a04f777bb1e18ce,64c801708a29f4ecb9763be2,right,-1,0.75,0.1786,0,-0.04932723,0.1661,,,,,,41,0,41,0,1,,,,,
,,989492,001,2023-07-31_20h59.35.096,arm3_eps,2022.2.5,Win32,58.46585594,615a0c65241737f2dece4771,64c7fed44a04f777bb1e18ce,64c801708a29f4ecb9763be2,right,-1,0.75,0.1786,0,-0.067324876,0.169,,,,,,42,0,42,0,1,,,,,
,,989492,001,2023-07-31_20h59.35.096,arm3_eps,2022.2.5,Win32,58.46585594,615a0c65241737f2dece4771,64c7fed44a04f777bb1e18ce,64c801708a29f4ecb9763be2,right,-1,0.75,0.1786,0,-0.087211978,0.1741,,,,,,43,0,43,0,1,,,,,
,,989492,001,2023-07-31_20h59.35.096,arm3_eps,2022.2.5,Win32,58.46585594,615a0c65241737f2dece4771,64c7fed44a04f777bb1e18ce,64c801708a29f4ecb9763be2,right,-1,0.75,0.1786,0,-0.082449532,0.1821,,,,,,44,0,44,0,1,,,,,
,,989492,001,2023-07-31_20h59.35.096,arm3_eps,2022.2.5,Win32,58.46585594,615a0c65241737f2dece4771,64c7fed44a04f777bb1e18ce,64c801708a29f4ecb9763be2,right,-1,0.75,0.1786,0,-0.075193511,0.1437,,,,,,45,0,45,0,1,,,,,
,,989492,001,2023-07-31_20h59.35.096,arm3_eps,2022.2.5,Win32,58.46585594,615a0c65241737f2dece4771,64c7fed44a04f777bb1e18ce,64c801708a29f4ecb9763be2,right,-1,0.75,0.1786,0,-0.116358419,0.1926,,,,,,46,0,46,0,1,,,,,
,,989492,001,2023-07-31_20h59.35.096,arm3_eps,2022.2.5,Win32,58.46585594,615a0c65241737f2dece4771,64c7fed44a04f777bb1e18ce,64c801708a29f4ecb9763be2,right,-1,0.75,0.1786,0,-0.145645878,0.4182,,,,,,47,0,47,0,1,,,,,
,,989492,001,2023-07-31_20h59.35.096,arm3_eps,2022.2.5,Win32,58.46585594,615a0c65241737f2dece4771,64c7fed44a04f777bb1e18ce,64c801708a29f4ecb9763be2,down,1,0.75,0.1786,1,0,1.0964,,,,,,48,0,48,0,1,,,,,
,,989492,001,2023-07-31_20h59.35.096,arm3_eps,2022.2.5,Win32,58.46585594,615a0c65241737f2dece4771,64c7fed44a04f777bb1e18ce,64c801708a29f4ecb9763be2,right,1,0.75,0.1786,1,0.02266979,0.875,,,,,,49,0,49,0,1,,,,,
,,989492,001,2023-07-31_20h59.35.096,arm3_eps,2022.2.5,Win32,58.46585594,615a0c65241737f2dece4771,64c7fed44a04f777bb1e18ce,64c801708a29f4ecb9763be2,right,1,0.75,0.1786,1,0.033447692,0.1864,,,,,,50,0,50,0,1,,,,,
,,989492,001,2023-07-31_20h59.35.096,arm3_eps,2022.2.5,Win32,58.46585594,615a0c65241737f2dece4771,64c7fed44a04f777bb1e18ce,64c801708a29f4ecb9763be2,right,1,0.75,0.1786,1,0.022097647,0.1543,,,,,,51,0,51,0,1,,,,,
,,989492,001,2023-07-31_20h59.35.096,arm3_eps,2022.2.5,Win32,58.46585594,615a0c65241737f2dece4771,64c7fed44a04f777bb1e18ce,64c801708a29f4ecb9763be2,right,1,0.75,0.1786,1,0.044567675,0.1491,,,,,,52,0,52,0,1,,,,,
,,989492,001,2023-07-31_20h59.35.096,arm3_eps,2022.2.5,Win32,58.46585594,615a0c65241737f2dece4771,64c7fed44a04f777bb1e18ce,64c801708a29f4ecb9763be2,right,1,0.75,0.1786,1,0.018061712,0.1708,,,,,,53,0,53,0,1,,,,,
,,989492,001,2023-07-31_20h59.35.096,arm3_eps,2022.2.5,Win32,58.46585594,615a0c65241737f2dece4771,64c7fed44a04f777bb1e18ce,64c801708a29f4ecb9763be2,right,1,0.75,0.1786,1,0.030514003,0.1705,,,,,,54,0,54,0,1,,,,,
,,989492,001,2023-07-31_20h59.35.096,arm3_eps,2022.2.5,Win32,58.46585594,615a0c65241737f2dece4771,64c7fed44a04f777bb1e18ce,64c801708a29f4ecb9763be2,right,1,0.75,0.1786,1,0.008925795,0.1509,,,,,,55,0,55,0,1,,,,,
,,989492,001,2023-07-31_20h59.35.096,arm3_eps,2022.2.5,Win32,58.46585594,615a0c65241737f2dece4771,64c7fed44a04f777bb1e18ce,64c801708a29f4ecb9763be2,right,1,0.75,0.1786,1,0.039319694,0.1825,,,,,,56,0,56,0,1,,,,,
,,989492,001,2023-07-31_20h59.35.096,arm3_eps,2022.2.5,Win32,58.46585594,615a0c65241737f2dece4771,64c7fed44a04f777bb1e18ce,64c801708a29f4ecb9763be2,right,1,0.75,0.1786,1,0.067249399,0.1673,,,,,,57,0,57,0,1,,,,,
,,989492,001,2023-07-31_20h59.35.096,arm3_eps,2022.2.5,Win32,58.46585594,615a0c65241737f2dece4771,64c7fed44a04f777bb1e18ce,64c801708a29f4ecb9763be2,right,1,0.75,0.1786,1,0.073770858,0.1918,,,,,,58,0,58,0,1,,,,,
,,989492,001,2023-07-31_20h59.35.096,arm3_eps,2022.2.5,Win32,58.46585594,615a0c65241737f2dece4771,64c7fed44a04f777bb1e18ce,64c801708a29f4ecb9763be2,right,1,0.75,0.1786,1,0.063739151,0.1923,,,,,,59,0,59,0,1,,,,,
,,989492,001,2023-07-31_20h59.35.096,arm3_eps,2022.2.5,Win32,58.46585594,615a0c65241737f2dece4771,64c7fed44a04f777bb1e18ce,64c801708a29f4ecb9763be2,right,1,0.75,0.1786,1,0.071072472,0.235,,,,,,60,0,60,0,1,,,,,
,,989492,001,2023-07-31_20h59.35.096,arm3_eps,2022.2.5,Win32,58.46585594,615a0c65241737f2dece4771,64c7fed44a04f777bb1e18ce,64c801708a29f4ecb9763be2,up,1,0.75,0.1786,2,0,1.1936,,,,,,61,0,61,0,1,,,,,
,,989492,001,2023-07-31_20h59.35.096,arm3_eps,2022.2.5,Win32,58.46585594,615a0c65241737f2dece4771,64c7fed44a04f777bb1e18ce,64c801708a29f4ecb9763be2,right,1,0.75,0.1786,2,0.024293402,0.9986,,,,,,62,0,62,0,1,,,,,
,,989492,001,2023-07-31_20h59.35.096,arm3_eps,2022.2.5,Win32,58.46585594,615a0c65241737f2dece4771,64c7fed44a04f777bb1e18ce,64c801708a29f4ecb9763be2,right,1,0.75,0.1786,2,0.045894776,0.1655,,,,,,63,0,63,0,1,,,,,
,,989492,001,2023-07-31_20h59.35.096,arm3_eps,2022.2.5,Win32,58.46585594,615a0c65241737f2dece4771,64c7fed44a04f777bb1e18ce,64c801708a29f4ecb9763be2,right,1,0.75,0.1786,2,0.053632568,0.1607,,,,,,64,0,64,0,1,,,,,
,,989492,001,2023-07-31_20h59.35.096,arm3_eps,2022.2.5,Win32,58.46585594,615a0c65241737f2dece4771,64c7fed44a04f777bb1e18ce,64c801708a29f4ecb9763be2,right,1,0.75,0.1786,2,0.088031345,0.1414,,,,,,65,0,65,0,1,,,,,
,,989492,001,2023-07-31_20h59.35.096,arm3_eps,2022.2.5,Win32,58.46585594,615a0c65241737f2dece4771,64c7fed44a04f777bb1e18ce,64c801708a29f4ecb9763be2,right,1,0.75,0.1786,2,0.085353492,0.2008,,,,,,66,0,66,0,1,,,,,
,,989492,001,2023-07-31_20h59.35.096,arm3_eps,2022.2.5,Win32,58.46585594,615a0c65241737f2dece4771,64c7fed44a04f777bb1e18ce,64c801708a29f4ecb9763be2,right,1,0.75,0.1786,2,0.132911704,0.1738,,,,,,67,0,67,0,1,,,,,
,,989492,001,2023-07-31_20h59.35.096,arm3_eps,2022.2.5,Win32,58.46585594,615a0c65241737f2dece4771,64c7fed44a04f777bb1e18ce,64c801708a29f4ecb9763be2,right,1,0.75,0.1786,2,0.152518514,0.1618,,,,,,68,0,68,0,1,,,,,
,,989492,001,2023-07-31_20h59.35.096,arm3_eps,2022.2.5,Win32,58.46585594,615a0c65241737f2dece4771,64c7fed44a04f777bb1e18ce,64c801708a29f4ecb9763be2,right,1,0.75,0.1786,2,0.170143754,0.1834,,,,,,69,0,69,0,1,,,,,
,,989492,001,2023-07-31_20h59.35.096,arm3_eps,2022.2.5,Win32,58.46585594,615a0c65241737f2dece4771,64c7fed44a04f777bb1e18ce,64c801708a29f4ecb9763be2,right,1,0.75,0.1786,2,0.193056483,0.2047,,,,,,70,0,70,0,1,,,,,
,,989492,001,2023-07-31_20h59.35.096,arm3_eps,2022.2.5,Win32,58.46585594,615a0c65241737f2dece4771,64c7fed44a04f777bb1e18ce,64c801708a29f4ecb9763be2,right,1,0.75,0.1786,2,0.181205278,0.2383,,,,,,71,0,71,0,1,,,,,
,,989492,001,2023-07-31_20h59.35.096,arm3_eps,2022.2.5,Win32,58.46585594,615a0c65241737f2dece4771,64c7fed44a04f777bb1e18ce,64c801708a29f4ecb9763be2,right,1,0.75,0.1786,2,0.156324692,0.4018,,,,,,72,0,72,0,1,,,,,
,,989492,001,2023-07-31_20h59.35.096,arm3_eps,2022.2.5,Win32,58.46585594,615a0c65241737f2dece4771,64c7fed44a04f777bb1e18ce,64c801708a29f4ecb9763be2,right,1,0.75,0.1786,2,0.166934611,0.4398,,,,,,73,0,73,0,1,,,,,
,,989492,001,2023-07-31_20h59.35.096,arm3_eps,2022.2.5,Win32,58.46585594,615a0c65241737f2dece4771,64c7fed44a04f777bb1e18ce,64c801708a29f4ecb9763be2,up,1,0.75,0.1786,3,0,2.5083,,,,,,74,0,74,0,1,,,,,
,,989492,001,2023-07-31_20h59.35.096,arm3_eps,2022.2.5,Win32,58.46585594,615a0c65241737f2dece4771,64c7fed44a04f777bb1e18ce,64c801708a29f4ecb9763be2,right,1,0.75,0.1786,3,-0.020300239,0.9028,,,,,,75,0,75,0,1,,,,,
,,989492,001,2023-07-31_20h59.35.096,arm3_eps,2022.2.5,Win32,58.46585594,615a0c65241737f2dece4771,64c7fed44a04f777bb1e18ce,64c801708a29f4ecb9763be2,right,1,0.75,0.1786,3,-0.019932083,0.1155,,,,,,76,0,76,0,1,,,,,
,,989492,001,2023-07-31_20h59.35.096,arm3_eps,2022.2.5,Win32,58.46585594,615a0c65241737f2dece4771,64c7fed44a04f777bb1e18ce,64c801708a29f4ecb9763be2,right,1,0.75,0.1786,3,-0.023723277,0.1651,,,,,,77,0,77,0,1,,,,,
,,989492,001,2023-07-31_20h59.35.096,arm3_eps,2022.2.5,Win32,58.46585594,615a0c65241737f2dece4771,64c7fed44a04f777bb1e18ce,64c801708a29f4ecb9763be2,right,1,0.75,0.1786,3,0.014164546,0.1865,,,,,,78,0,78,0,1,,,,,
,,989492,001,2023-07-31_20h59.35.096,arm3_eps,2022.2.5,Win32,58.46585594,615a0c65241737f2dece4771,64c7fed44a04f777bb1e18ce,64c801708a29f4ecb9763be2,right,1,0.75,0.1786,3,-0.011052117,0.1987,,,,,,79,0,79,0,1,,,,,
,,989492,001,2023-07-31_20h59.35.096,arm3_eps,2022.2.5,Win32,58.46585594,615a0c65241737f2dece4771,64c7fed44a04f777bb1e18ce,64c801708a29f4ecb9763be2,right,1,0.75,0.1786,3,-0.005374096,0.1719,,,,,,80,0,80,0,1,,,,,
,,989492,001,2023-07-31_20h59.35.096,arm3_eps,2022.2.5,Win32,58.46585594,615a0c65241737f2dece4771,64c7fed44a04f777bb1e18ce,64c801708a29f4ecb9763be2,right,1,0.75,0.1786,3,0.017337628,0.0768,,,,,,81,0,81,0,1,,,,,
,,989492,001,2023-07-31_20h59.35.096,arm3_eps,2022.2.5,Win32,58.46585594,615a0c65241737f2dece4771,64c7fed44a04f777bb1e18ce,64c801708a29f4ecb9763be2,right,1,0.75,0.1786,3,0.046693431,0.1981,,,,,,82,0,82,0,1,,,,,
,,989492,001,2023-07-31_20h59.35.096,arm3_eps,2022.2.5,Win32,58.46585594,615a0c65241737f2dece4771,64c7fed44a04f777bb1e18ce,64c801708a29f4ecb9763be2,right,1,0.75,0.1786,3,0.051496105,0.218,,,,,,83,0,83,0,1,,,,,
,,989492,001,2023-07-31_20h59.35.096,arm3_eps,2022.2.5,Win32,58.46585594,615a0c65241737f2dece4771,64c7fed44a04f777bb1e18ce,64c801708a29f4ecb9763be2,right,1,0.75,0.1786,3,0.042016562,0.0518,,,,,,84,0,84,0,1,,,,,
,,989492,001,2023-07-31_20h59.35.096,arm3_eps,2022.2.5,Win32,58.46585594,615a0c65241737f2dece4771,64c7fed44a04f777bb1e18ce,64c801708a29f4ecb9763be2,right,1,0.75,0.1786,3,0.038728986,0.1719,,,,,,85,0,85,0,1,,,,,
,,989492,001,2023-07-31_20h59.35.096,arm3_eps,2022.2.5,Win32,58.46585594,615a0c65241737f2dece4771,64c7fed44a04f777bb1e18ce,64c801708a29f4ecb9763be2,right,1,0.75,0.1786,3,0.060717555,0.3827,,,,,,86,0,86,0,1,,,,,
,,989492,001,2023-07-31_20h59.35.096,arm3_eps,2022.2.5,Win32,58.46585594,615a0c65241737f2dece4771,64c7fed44a04f777bb1e18ce,64c801708a29f4ecb9763be2,up,1,0.75,0.1786,3,0,1.059,,,,,,87,0,87,0,1,,,,,
,,989492,001,2023-07-31_20h59.35.096,arm3_eps,2022.2.5,Win32,58.46585594,615a0c65241737f2dece4771,64c7fed44a04f777bb1e18ce,64c801708a29f4ecb9763be2,right,1,0.75,0.1786,3,-0.002623949,0.9935,,,,,,88,0,88,0,1,,,,,
,,989492,001,2023-07-31_20h59.35.096,arm3_eps,2022.2.5,Win32,58.46585594,615a0c65241737f2dece4771,64c7fed44a04f777bb1e18ce,64c801708a29f4ecb9763be2,right,1,0.75,0.1786,3,-0.007232712,0.1696,,,,,,89,0,89,0,1,,,,,
,,989492,001,2023-07-31_20h59.35.096,arm3_eps,2022.2.5,Win32,58.46585594,615a0c65241737f2dece4771,64c7fed44a04f777bb1e18ce,64c801708a29f4ecb9763be2,right,1,0.75,0.1786,3,-0.007593228,0.1331,,,,,,90,0,90,0,1,,,,,
,,989492,001,2023-07-31_20h59.35.096,arm3_eps,2022.2.5,Win32,58.46585594,615a0c65241737f2dece4771,64c7fed44a04f777bb1e18ce,64c801708a29f4ecb9763be2,right,1,0.75,0.1786,3,-0.003017195,0.1834,,,,,,91,0,91,0,1,,,,,
,,989492,001,2023-07-31_20h59.35.096,arm3_eps,2022.2.5,Win32,58.46585594,615a0c65241737f2dece4771,64c7fed44a04f777bb1e18ce,64c801708a29f4ecb9763be2,right,1,0.75,0.1786,3,-0.00498539,0.2023,,,,,,92,0,92,0,1,,,,,
,,989492,001,2023-07-31_20h59.35.096,arm3_eps,2022.2.5,Win32,58.46585594,615a0c65241737f2dece4771,64c7fed44a04f777bb1e18ce,64c801708a29f4ecb9763be2,right,1,0.75,0.1786,3,-0.002622163,0.1362,,,,,,93,0,93,0,1,,,,,
,,989492,001,2023-07-31_20h59.35.096,arm3_eps,2022.2.5,Win32,58.46585594,615a0c65241737f2dece4771,64c7fed44a04f777bb1e18ce,64c801708a29f4ecb9763be2,right,1,0.75,0.1786,3,0.00961129,0.1675,,,,,,94,0,94,0,1,,,,,
,,989492,001,2023-07-31_20h59.35.096,arm3_eps,2022.2.5,Win32,58.46585594,615a0c65241737f2dece4771,64c7fed44a04f777bb1e18ce,64c801708a29f4ecb9763be2,right,1,0.75,0.1786,3,-0.009860991,0.1842,,,,,,95,0,95,0,1,,,,,
,,989492,001,2023-07-31_20h59.35.096,arm3_eps,2022.2.5,Win32,58.46585594,615a0c65241737f2dece4771,64c7fed44a04f777bb1e18ce,64c801708a29f4ecb9763be2,right,1,0.75,0.1786,3,-0.003638398,0.1615,,,,,,96,0,96,0,1,,,,,
,,989492,001,2023-07-31_20h59.35.096,arm3_eps,2022.2.5,Win32,58.46585594,615a0c65241737f2dece4771,64c7fed44a04f777bb1e18ce,64c801708a29f4ecb9763be2,right,1,0.75,0.1786,3,-0.028578295,0.1945,,,,,,97,0,97,0,1,,,,,
,,989492,001,2023-07-31_20h59.35.096,arm3_eps,2022.2.5,Win32,58.46585594,615a0c65241737f2dece4771,64c7fed44a04f777bb1e18ce,64c801708a29f4ecb9763be2,right,1,0.75,0.1786,3,-0.006608869,0.1723,,,,,,98,0,98,0,1,,,,,
,,989492,001,2023-07-31_20h59.35.096,arm3_eps,2022.2.5,Win32,58.46585594,615a0c65241737f2dece4771,64c7fed44a04f777bb1e18ce,64c801708a29f4ecb9763be2,right,1,0.75,0.1786,3,0.022799194,0.1798,,,,,,99,0,99,0,1,,,,,
,,989492,001,2023-07-31_20h59.35.096,arm3_eps,2022.2.5,Win32,58.46585594,615a0c65241737f2dece4771,64c7fed44a04f777bb1e18ce,64c801708a29f4ecb9763be2,up,1,0.75,0.1786,4,0,1.0446,,,,,,100,0,100,0,1,,,,,
,,989492,001,2023-07-31_20h59.35.096,arm3_eps,2022.2.5,Win32,58.46585594,615a0c65241737f2dece4771,64c7fed44a04f777bb1e18ce,64c801708a29f4ecb9763be2,right,1,0.75,0.1786,4,-0.017945208,0.8889,,,,,,101,0,101,0,1,,,,,
,,989492,001,2023-07-31_20h59.35.096,arm3_eps,2022.2.5,Win32,58.46585594,615a0c65241737f2dece4771,64c7fed44a04f777bb1e18ce,64c801708a29f4ecb9763be2,right,1,0.75,0.1786,4,0.018811216,0.16,,,,,,102,0,102,0,1,,,,,
,,989492,001,2023-07-31_20h59.35.096,arm3_eps,2022.2.5,Win32,58.46585594,615a0c65241737f2dece4771,64c7fed44a04f777bb1e18ce,64c801708a29f4ecb9763be2,right,1,0.75,0.1786,4,0.006781525,0.1923,,,,,,103,0,103,0,1,,,,,
,,989492,001,2023-07-31_20h59.35.096,arm3_eps,2022.2.5,Win32,58.46585594,615a0c65241737f2dece4771,64c7fed44a04f777bb1e18ce,64c801708a29f4ecb9763be2,right,1,0.75,0.1786,4,-0.0033187,0.1892,,,,,,104,0,104,0,1,,,,,
,,989492,001,2023-07-31_20h59.35.096,arm3_eps,2022.2.5,Win32,58.46585594,615a0c65241737f2dece4771,64c7fed44a04f777bb1e18ce,64c801708a29f4ecb9763be2,right,1,0.75,0.1786,4,-0.008549737,0.1637,,,,,,105,0,105,0,1,,,,,
,,989492,001,2023-07-31_20h59.35.096,arm3_eps,2022.2.5,Win32,58.46585594,615a0c65241737f2dece4771,64c7fed44a04f777bb1e18ce,64c801708a29f4ecb9763be2,right,1,0.75,0.1786,4,0.024665724,0.1842,,,,,,106,0,106,0,1,,,,,
,,989492,001,2023-07-31_20h59.35.096,arm3_eps,2022.2.5,Win32,58.46585594,615a0c65241737f2dece4771,64c7fed44a04f777bb1e18ce,64c801708a29f4ecb9763be2,right,1,0.75,0.1786,4,0.048116631,0.1883,,,,,,107,0,107,0,1,,,,,
,,989492,001,2023-07-31_20h59.35.096,arm3_eps,2022.2.5,Win32,58.46585594,615a0c65241737f2dece4771,64c7fed44a04f777bb1e18ce,64c801708a29f4ecb9763be2,right,1,0.75,0.1786,4,0.055639481,0.2118,,,,,,108,0,108,0,1,,,,,
,,989492,001,2023-07-31_20h59.35.096,arm3_eps,2022.2.5,Win32,58.46585594,615a0c65241737f2dece4771,64c7fed44a04f777bb1e18ce,64c801708a29f4ecb9763be2,right,1,0.75,0.1786,4,0.065554155,0.1837,,,,,,109,0,109,0,1,,,,,
,,989492,001,2023-07-31_20h59.35.096,arm3_eps,2022.2.5,Win32,58.46585594,615a0c65241737f2dece4771,64c7fed44a04f777bb1e18ce,64c801708a29f4ecb9763be2,right,1,0.75,0.1786,4,0.102494851,0.1487,,,,,,110,0,110,0,1,,,,,
,,989492,001,2023-07-31_20h59.35.096,arm3_eps,2022.2.5,Win32,58.46585594,615a0c65241737f2dece4771,64c7fed44a04f777bb1e18ce,64c801708a29f4ecb9763be2,right,1,0.75,0.1786,4,0.127744097,0.1827,,,,,,111,0,111,0,1,,,,,
,,989492,001,2023-07-31_20h59.35.096,arm3_eps,2022.2.5,Win32,58.46585594,615a0c65241737f2dece4771,64c7fed44a04f777bb1e18ce,64c801708a29f4ecb9763be2,right,1,0.75,0.1786,4,0.162651308,0.4219,,,,,,112,0,112,0,1,,,,,
,,989492,001,2023-07-31_20h59.35.096,arm3_eps,2022.2.5,Win32,58.46585594,615a0c65241737f2dece4771,64c7fed44a04f777bb1e18ce,64c801708a29f4ecb9763be2,up,1,0.75,0.1786,5,0,0.9046,,,,,,113,0,113,0,1,,,,,
,,989492,001,2023-07-31_20h59.35.096,arm3_eps,2022.2.5,Win32,58.46585594,615a0c65241737f2dece4771,64c7fed44a04f777bb1e18ce,64c801708a29f4ecb9763be2,right,1,0.75,0.1786,5,-0.006799856,5.4961,,,,,,114,0,114,0,1,,,,,
,,989492,001,2023-07-31_20h59.35.096,arm3_eps,2022.2.5,Win32,58.46585594,615a0c65241737f2dece4771,64c7fed44a04f777bb1e18ce,64c801708a29f4ecb9763be2,right,1,0.75,0.1786,5,-0.0162506,0.0094,,,,,,115,0,115,0,1,,,,,
,,989492,001,2023-07-31_20h59.35.096,arm3_eps,2022.2.5,Win32,58.46585594,615a0c65241737f2dece4771,64c7fed44a04f777bb1e18ce,64c801708a29f4ecb9763be2,right,1,0.75,0.1786,5,-0.001094863,0.1601,,,,,,116,0,116,0,1,,,,,
,,989492,001,2023-07-31_20h59.35.096,arm3_eps,2022.2.5,Win32,58.46585594,615a0c65241737f2dece4771,64c7fed44a04f777bb1e18ce,64c801708a29f4ecb9763be2,right,1,0.75,0.1786,5,-0.012678783,0.1505,,,,,,117,0,117,0,1,,,,,
,,989492,001,2023-07-31_20h59.35.096,arm3_eps,2022.2.5,Win32,58.46585594,615a0c65241737f2dece4771,64c7fed44a04f777bb1e18ce,64c801708a29f4ecb9763be2,right,1,0.75,0.1786,5,0.000137261,0.2057,,,,,,118,0,118,0,1,,,,,
,,989492,001,2023-07-31_20h59.35.096,arm3_eps,2022.2.5,Win32,58.46585594,615a0c65241737f2dece4771,64c7fed44a04f777bb1e18ce,64c801708a29f4ecb9763be2,right,1,0.75,0.1786,5,-0.016812113,0.1588,,,,,,119,0,119,0,1,,,,,
,,989492,001,2023-07-31_20h59.35.096,arm3_eps,2022.2.5,Win32,58.46585594,615a0c65241737f2dece4771,64c7fed44a04f777bb1e18ce,64c801708a29f4ecb9763be2,right,1,0.75,0.1786,5,-0.026493902,0.1403,,,,,,120,0,120,0,1,,,,,
,,989492,001,2023-07-31_20h59.35.096,arm3_eps,2022.2.5,Win32,58.46585594,615a0c65241737f2dece4771,64c7fed44a04f777bb1e18ce,64c801708a29f4ecb9763be2,right,1,0.75,0.1786,5,-0.04023243,0.1597,,,,,,121,0,121,0,1,,,,,
,,989492,001,2023-07-31_20h59.35.096,arm3_eps,2022.2.5,Win32,58.46585594,615a0c65241737f2dece4771,64c7fed44a04f777bb1e18ce,64c801708a29f4ecb9763be2,right,1,0.75,0.1786,5,-0.013221101,0.2134,,,,,,122,0,122,0,1,,,,,
,,989492,001,2023-07-31_20h59.35.096,arm3_eps,2022.2.5,Win32,58.46585594,615a0c65241737f2dece4771,64c7fed44a04f777bb1e18ce,64c801708a29f4ecb9763be2,right,1,0.75,0.1786,5,-0.021063132,0.3342,,,,,,123,0,123,0,1,,,,,
,,989492,001,2023-07-31_20h59.35.096,arm3_eps,2022.2.5,Win32,58.46585594,615a0c65241737f2dece4771,64c7fed44a04f777bb1e18ce,64c801708a29f4ecb9763be2,right,1,0.75,0.1786,5,-0.01131359,0.2924,,,,,,124,0,124,0,1,,,,,
,,989492,001,2023-07-31_20h59.35.096,arm3_eps,2022.2.5,Win32,58.46585594,615a0c65241737f2dece4771,64c7fed44a04f777bb1e18ce,64c801708a29f4ecb9763be2,right,1,0.75,0.1786,5,0.001490221,0.3873,,,,,,125,0,125,0,1,,,,,
,,989492,001,2023-07-31_20h59.35.096,arm3_eps,2022.2.5,Win32,58.46585594,615a0c65241737f2dece4771,64c7fed44a04f777bb1e18ce,64c801708a29f4ecb9763be2,down,1,0.75,0.1786,4,0,1.1715,,,,,,126,0,126,0,1,,,,,
,,989492,001,2023-07-31_20h59.35.096,arm3_eps,2022.2.5,Win32,58.46585594,615a0c65241737f2dece4771,64c7fed44a04f777bb1e18ce,64c801708a29f4ecb9763be2,right,1,0.75,0.1786,4,0.008219739,0.8772,,,,,,127,0,127,0,1,,,,,
,,989492,001,2023-07-31_20h59.35.096,arm3_eps,2022.2.5,Win32,58.46585594,615a0c65241737f2dece4771,64c7fed44a04f777bb1e18ce,64c801708a29f4ecb9763be2,right,1,0.75,0.1786,4,0.043274548,0.1688,,,,,,128,0,128,0,1,,,,,
,,989492,001,2023-07-31_20h59.35.096,arm3_eps,2022.2.5,Win32,58.46585594,615a0c65241737f2dece4771,64c7fed44a04f777bb1e18ce,64c801708a29f4ecb9763be2,right,1,0.75,0.1786,4,0.022128428,0.1748,,,,,,129,0,129,0,1,,,,,
,,989492,001,2023-07-31_20h59.35.096,arm3_eps,2022.2.5,Win32,58.46585594,615a0c65241737f2dece4771,64c7fed44a04f777bb1e18ce,64c801708a29f4ecb9763be2,right,1,0.75,0.1786,4,-0.00676253,0.2812,,,,,,130,0,130,0,1,,,,,
,,989492,001,2023-07-31_20h59.35.096,arm3_eps,2022.2.5,Win32,58.46585594,615a0c65241737f2dece4771,64c7fed44a04f777bb1e18ce,64c801708a29f4ecb9763be2,right,1,0.75,0.1786,4,0.02117228,0.1859,,,,,,131,0,131,0,1,,,,,
,,989492,001,2023-07-31_20h59.35.096,arm3_eps,2022.2.5,Win32,58.46585594,615a0c65241737f2dece4771,64c7fed44a04f777bb1e18ce,64c801708a29f4ecb9763be2,right,1,0.75,0.1786,4,0.006699412,0.2054,,,,,,132,0,132,0,1,,,,,
,,989492,001,2023-07-31_20h59.35.096,arm3_eps,2022.2.5,Win32,58.46585594,615a0c65241737f2dece4771,64c7fed44a04f777bb1e18ce,64c801708a29f4ecb9763be2,right,1,0.75,0.1786,4,0.004937712,0.1448,,,,,,133,0,133,0,1,,,,,
,,989492,001,2023-07-31_20h59.35.096,arm3_eps,2022.2.5,Win32,58.46585594,615a0c65241737f2dece4771,64c7fed44a04f777bb1e18ce,64c801708a29f4ecb9763be2,right,1,0.75,0.1786,4,0.055898606,0.1496,,,,,,134,0,134,0,1,,,,,
,,989492,001,2023-07-31_20h59.35.096,arm3_eps,2022.2.5,Win32,58.46585594,615a0c65241737f2dece4771,64c7fed44a04f777bb1e18ce,64c801708a29f4ecb9763be2,right,1,0.75,0.1786,4,0.073209703,0.0912,,,,,,135,0,135,0,1,,,,,
,,989492,001,2023-07-31_20h59.35.096,arm3_eps,2022.2.5,Win32,58.46585594,615a0c65241737f2dece4771,64c7fed44a04f777bb1e18ce,64c801708a29f4ecb9763be2,right,1,0.75,0.1786,4,0.102610163,0.101,,,,,,136,0,136,0,1,,,,,
,,989492,001,2023-07-31_20h59.35.096,arm3_eps,2022.2.5,Win32,58.46585594,615a0c65241737f2dece4771,64c7fed44a04f777bb1e18ce,64c801708a29f4ecb9763be2,right,1,0.75,0.1786,4,0.09718713,0.0366,,,,,,137,0,137,0,1,,,,,
,,989492,001,2023-07-31_20h59.35.096,arm3_eps,2022.2.5,Win32,58.46585594,615a0c65241737f2dece4771,64c7fed44a04f777bb1e18ce,64c801708a29f4ecb9763be2,right,1,0.75,0.1786,4,0.123977172,0.1593,,,,,,138,0,138,0,1,,,,,
,,989492,001,2023-07-31_20h59.35.096,arm3_eps,2022.2.5,Win32,58.46585594,615a0c65241737f2dece4771,64c7fed44a04f777bb1e18ce,64c801708a29f4ecb9763be2,up,-1,0.75,0.1786,5,0,1.6845,,,,,,139,0,139,0,1,,,,,
,,989492,001,2023-07-31_20h59.35.096,arm3_eps,2022.2.5,Win32,58.46585594,615a0c65241737f2dece4771,64c7fed44a04f777bb1e18ce,64c801708a29f4ecb9763be2,right,-1,0.75,0.1786,5,0.029562671,0.8309,,,,,,140,0,140,0,1,,,,,
,,989492,001,2023-07-31_20h59.35.096,arm3_eps,2022.2.5,Win32,58.46585594,615a0c65241737f2dece4771,64c7fed44a04f777bb1e18ce,64c801708a29f4ecb9763be2,right,-1,0.75,0.1786,5,0.030635808,0.1608,,,,,,141,0,141,0,1,,,,,
,,989492,001,2023-07-31_20h59.35.096,arm3_eps,2022.2.5,Win32,58.46585594,615a0c65241737f2dece4771,64c7fed44a04f777bb1e18ce,64c801708a29f4ecb9763be2,right,-1,0.75,0.1786,5,0.040405348,0.1554,,,,,,142,0,142,0,1,,,,,
,,989492,001,2023-07-31_20h59.35.096,arm3_eps,2022.2.5,Win32,58.46585594,615a0c65241737f2dece4771,64c7fed44a04f777bb1e18ce,64c801708a29f4ecb9763be2,right,-1,0.75,0.1786,5,0.054608732,0.1611,,,,,,143,0,143,0,1,,,,,
,,989492,001,2023-07-31_20h59.35.096,arm3_eps,2022.2.5,Win32,58.46585594,615a0c65241737f2dece4771,64c7fed44a04f777bb1e18ce,64c801708a29f4ecb9763be2,right,-1,0.75,0.1786,5,0.030086223,0.1249,,,,,,144,0,144,0,1,,,,,
,,989492,001,2023-07-31_20h59.35.096,arm3_eps,2022.2.5,Win32,58.46585594,615a0c65241737f2dece4771,64c7fed44a04f777bb1e18ce,64c801708a29f4ecb9763be2,right,-1,0.75,0.1786,5,0.006639125,0.1701,,,,,,145,0,145,0,1,,,,,
,,989492,001,2023-07-31_20h59.35.096,arm3_eps,2022.2.5,Win32,58.46585594,615a0c65241737f2dece4771,64c7fed44a04f777bb1e18ce,64c801708a29f4ecb9763be2,right,-1,0.75,0.1786,5,-0.025765247,0.1137,,,,,,146,0,146,0,1,,,,,
,,989492,001,2023-07-31_20h59.35.096,arm3_eps,2022.2.5,Win32,58.46585594,615a0c65241737f2dece4771,64c7fed44a04f777bb1e18ce,64c801708a29f4ecb9763be2,right,-1,0.75,0.1786,5,-0.025904808,0.1599,,,,,,147,0,147,0,1,,,,,
,,989492,001,2023-07-31_20h59.35.096,arm3_eps,2022.2.5,Win32,58.46585594,615a0c65241737f2dece4771,64c7fed44a04f777bb1e18ce,64c801708a29f4ecb9763be2,right,-1,0.75,0.1786,5,-0.015608738,0.1496,,,,,,148,0,148,0,1,,,,,
,,989492,001,2023-07-31_20h59.35.096,arm3_eps,2022.2.5,Win32,58.46585594,615a0c65241737f2dece4771,64c7fed44a04f777bb1e18ce,64c801708a29f4ecb9763be2,right,-1,0.75,0.1786,5,-0.007167835,0.1437,,,,,,149,0,149,0,1,,,,,
,,989492,001,2023-07-31_20h59.35.096,arm3_eps,2022.2.5,Win32,58.46585594,615a0c65241737f2dece4771,64c7fed44a04f777bb1e18ce,64c801708a29f4ecb9763be2,right,-1,0.75,0.1786,5,-0.033068077,0.1889,,,,,,150,0,150,0,1,,,,,
,,989492,001,2023-07-31_20h59.35.096,arm3_eps,2022.2.5,Win32,58.46585594,615a0c65241737f2dece4771,64c7fed44a04f777bb1e18ce,64c801708a29f4ecb9763be2,right,-1,0.75,0.1786,5,-0.061939566,0.1399,,,,,,151,0,151,0,1,,,,,
,,989492,001,2023-07-31_20h59.35.096,arm3_eps,2022.2.5,Win32,58.46585594,615a0c65241737f2dece4771,64c7fed44a04f777bb1e18ce,64c801708a29f4ecb9763be2,down,-1,0.75,0.1786,6,0,1.3942,,,,,,152,0,152,0,1,,,,,
,,989492,001,2023-07-31_20h59.35.096,arm3_eps,2022.2.5,Win32,58.46585594,615a0c65241737f2dece4771,64c7fed44a04f777bb1e18ce,64c801708a29f4ecb9763be2,right,-1,0.75,0.1786,6,-0.012165258,0.6708,,,,,,153,0,153,0,1,,,,,
,,989492,001,2023-07-31_20h59.35.096,arm3_eps,2022.2.5,Win32,58.46585594,615a0c65241737f2dece4771,64c7fed44a04f777bb1e18ce,64c801708a29f4ecb9763be2,right,-1,0.75,0.1786,6,0.005063,0.1503,,,,,,154,0,154,0,1,,,,,
,,989492,001,2023-07-31_20h59.35.096,arm3_eps,2022.2.5,Win32,58.46585594,615a0c65241737f2dece4771,64c7fed44a04f777bb1e18ce,64c801708a29f4ecb9763be2,right,-1,0.75,0.1786,6,-0.033957185,0.124,,,,,,155,0,155,0,1,,,,,
,,989492,001,2023-07-31_20h59.35.096,arm3_eps,2022.2.5,Win32,58.46585594,615a0c65241737f2dece4771,64c7fed44a04f777bb1e18ce,64c801708a29f4ecb9763be2,right,-1,0.75,0.1786,6,-0.045969186,0.1681,,,,,,156,0,156,0,1,,,,,
,,989492,001,2023-07-31_20h59.35.096,arm3_eps,2022.2.5,Win32,58.46585594,615a0c65241737f2dece4771,64c7fed44a04f777bb1e18ce,64c801708a29f4ecb9763be2,right,-1,0.75,0.1786,6,-0.053522594,0.0345,,,,,,157,0,157,0,1,,,,,
,,989492,001,2023-07-31_20h59.35.096,arm3_eps,2022.2.5,Win32,58.46585594,615a0c65241737f2dece4771,64c7fed44a04f777bb1e18ce,64c801708a29f4ecb9763be2,right,-1,0.75,0.1786,6,-0.060001022,0.1091,,,,,,158,0,158,0,1,,,,,
,,989492,001,2023-07-31_20h59.35.096,arm3_eps,2022.2.5,Win32,58.46585594,615a0c65241737f2dece4771,64c7fed44a04f777bb1e18ce,64c801708a29f4ecb9763be2,right,-1,0.75,0.1786,6,-0.056137735,0.1526,,,,,,159,0,159,0,1,,,,,
,,989492,001,2023-07-31_20h59.35.096,arm3_eps,2022.2.5,Win32,58.46585594,615a0c65241737f2dece4771,64c7fed44a04f777bb1e18ce,64c801708a29f4ecb9763be2,right,-1,0.75,0.1786,6,-0.113116737,0.0799,,,,,,160,0,160,0,1,,,,,
,,989492,001,2023-07-31_20h59.35.096,arm3_eps,2022.2.5,Win32,58.46585594,615a0c65241737f2dece4771,64c7fed44a04f777bb1e18ce,64c801708a29f4ecb9763be2,right,-1,0.75,0.1786,6,-0.131805285,0.1143,,,,,,161,0,161,0,1,,,,,
,,989492,001,2023-07-31_20h59.35.096,arm3_eps,2022.2.5,Win32,58.46585594,615a0c65241737f2dece4771,64c7fed44a04f777bb1e18ce,64c801708a29f4ecb9763be2,right,-1,0.75,0.1786,6,-0.142244542,0.176,,,,,,162,0,162,0,1,,,,,
,,989492,001,2023-07-31_20h59.35.096,arm3_eps,2022.2.5,Win32,58.46585594,615a0c65241737f2dece4771,64c7fed44a04f777bb1e18ce,64c801708a29f4ecb9763be2,right,-1,0.75,0.1786,6,-0.141899476,0.111,,,,,,163,0,163,0,1,,,,,
,,989492,001,2023-07-31_20h59.35.096,arm3_eps,2022.2.5,Win32,58.46585594,615a0c65241737f2dece4771,64c7fed44a04f777bb1e18ce,64c801708a29f4ecb9763be2,right,-1,0.75,0.1786,6,-0.176948647,0.1935,,,,,,164,0,164,0,1,,,,,
,,989492,001,2023-07-31_20h59.35.096,arm3_eps,2022.2.5,Win32,58.46585594,615a0c65241737f2dece4771,64c7fed44a04f777bb1e18ce,64c801708a29f4ecb9763be2,down,-1,0.75,0.1786,6,0,1.1175,,,,,,165,0,165,0,1,,,,,
,,989492,001,2023-07-31_20h59.35.096,arm3_eps,2022.2.5,Win32,58.46585594,615a0c65241737f2dece4771,64c7fed44a04f777bb1e18ce,64c801708a29f4ecb9763be2,right,-1,0.75,0.1786,6,-0.017374413,0.9846,,,,,,166,0,166,0,1,,,,,
,,989492,001,2023-07-31_20h59.35.096,arm3_eps,2022.2.5,Win32,58.46585594,615a0c65241737f2dece4771,64c7fed44a04f777bb1e18ce,64c801708a29f4ecb9763be2,right,-1,0.75,0.1786,6,-0.033317064,0.1534,,,,,,167,0,167,0,1,,,,,
,,989492,001,2023-07-31_20h59.35.096,arm3_eps,2022.2.5,Win32,58.46585594,615a0c65241737f2dece4771,64c7fed44a04f777bb1e18ce,64c801708a29f4ecb9763be2,right,-1,0.75,0.1786,6,-0.043244448,0.0359,,,,,,168,0,168,0,1,,,,,
,,989492,001,2023-07-31_20h59.35.096,arm3_eps,2022.2.5,Win32,58.46585594,615a0c65241737f2dece4771,64c7fed44a04f777bb1e18ce,64c801708a29f4ecb9763be2,right,-1,0.75,0.1786,6,-0.038159726,0.1457,,,,,,169,0,169,0,1,,,,,
,,989492,001,2023-07-31_20h59.35.096,arm3_eps,2022.2.5,Win32,58.46585594,615a0c65241737f2dece4771,64c7fed44a04f777bb1e18ce,64c801708a29f4ecb9763be2,right,-1,0.75,0.1786,6,-0.042961242,0.1244,,,,,,170,0,170,0,1,,,,,
,,989492,001,2023-07-31_20h59.35.096,arm3_eps,2022.2.5,Win32,58.46585594,615a0c65241737f2dece4771,64c7fed44a04f777bb1e18ce,64c801708a29f4ecb9763be2,right,-1,0.75,0.1786,6,-0.038075707,0.1772,,,,,,171,0,171,0,1,,,,,
,,989492,001,2023-07-31_20h59.35.096,arm3_eps,2022.2.5,Win32,58.46585594,615a0c65241737f2dece4771,64c7fed44a04f777bb1e18ce,64c801708a29f4ecb9763be2,right,-1,0.75,0.1786,6,-0.081200172,0.0886,,,,,,172,0,172,0,1,,,,,
,,989492,001,2023-07-31_20h59.35.096,arm3_eps,2022.2.5,Win32,58.46585594,615a0c65241737f2dece4771,64c7fed44a04f777bb1e18ce,64c801708a29f4ecb9763be2,right,-1,0.75,0.1786,6,-0.067918031,0.1784,,,,,,173,0,173,0,1,,,,,
,,989492,001,2023-07-31_20h59.35.096,arm3_eps,2022.2.5,Win32,58.46585594,615a0c65241737f2dece4771,64c7fed44a04f777bb1e18ce,64c801708a29f4ecb9763be2,right,-1,0.75,0.1786,6,-0.090162344,0.1161,,,,,,174,0,174,0,1,,,,,
,,989492,001,2023-07-31_20h59.35.096,arm3_eps,2022.2.5,Win32,58.46585594,615a0c65241737f2dece4771,64c7fed44a04f777bb1e18ce,64c801708a29f4ecb9763be2,right,-1,0.75,0.1786,6,-0.134103364,0.1318,,,,,,175,0,175,0,1,,,,,
,,989492,001,2023-07-31_20h59.35.096,arm3_eps,2022.2.5,Win32,58.46585594,615a0c65241737f2dece4771,64c7fed44a04f777bb1e18ce,64c801708a29f4ecb9763be2,right,-1,0.75,0.1786,6,-0.13921833,0.2096,,,,,,176,0,176,0,1,,,,,
,,989492,001,2023-07-31_20h59.35.096,arm3_eps,2022.2.5,Win32,58.46585594,615a0c65241737f2dece4771,64c7fed44a04f777bb1e18ce,64c801708a29f4ecb9763be2,right,-1,0.75,0.1786,6,-0.1448006,0.389,,,,,,177,0,177,0,1,,,,,
,,989492,001,2023-07-31_20h59.35.096,arm3_eps,2022.2.5,Win32,58.46585594,615a0c65241737f2dece4771,64c7fed44a04f777bb1e18ce,64c801708a29f4ecb9763be2,down,1,0.75,0.1786,7,0,0.8499,,,,,,178,0,178,0,1,,,,,
,,989492,001,2023-07-31_20h59.35.096,arm3_eps,2022.2.5,Win32,58.46585594,615a0c65241737f2dece4771,64c7fed44a04f777bb1e18ce,64c801708a29f4ecb9763be2,right,1,0.75,0.1786,7,0.004874556,0.8816,,,,,,179,0,179,0,1,,,,,
,,989492,001,2023-07-31_20h59.35.096,arm3_eps,2022.2.5,Win32,58.46585594,615a0c65241737f2dece4771,64c7fed44a04f777bb1e18ce,64c801708a29f4ecb9763be2,right,1,0.75,0.1786,7,0.027383037,0.1662,,,,,,180,0,180,0,1,,,,,
,,989492,001,2023-07-31_20h59.35.096,arm3_eps,2022.2.5,Win32,58.46585594,615a0c65241737f2dece4771,64c7fed44a04f777bb1e18ce,64c801708a29f4ecb9763be2,right,1,0.75,0.1786,7,0.033773559,0.1577,,,,,,181,0,181,0,1,,,,,
,,989492,001,2023-07-31_20h59.35.096,arm3_eps,2022.2.5,Win32,58.46585594,615a0c65241737f2dece4771,64c7fed44a04f777bb1e18ce,64c801708a29f4ecb9763be2,right,1,0.75,0.1786,7,0.028606329,0.0807,,,,,,182,0,182,0,1,,,,,
,,989492,001,2023-07-31_20h59.35.096,arm3_eps,2022.2.5,Win32,58.46585594,615a0c65241737f2dece4771,64c7fed44a04f777bb1e18ce,64c801708a29f4ecb9763be2,right,1,0.75,0.1786,7,0.034755512,0.1476,,,,,,183,0,183,0,1,,,,,
,,989492,001,2023-07-31_20h59.35.096,arm3_eps,2022.2.5,Win32,58.46585594,615a0c65241737f2dece4771,64c7fed44a04f777bb1e18ce,64c801708a29f4ecb9763be2,right,1,0.75,0.1786,7,0.032175041,0.1584,,,,,,184,0,184,0,1,,,,,
,,989492,001,2023-07-31_20h59.35.096,arm3_eps,2022.2.5,Win32,58.46585594,615a0c65241737f2dece4771,64c7fed44a04f777bb1e18ce,64c801708a29f4ecb9763be2,right,1,0.75,0.1786,7,0.039908787,0.1153,,,,,,185,0,185,0,1,,,,,
,,989492,001,2023-07-31_20h59.35.096,arm3_eps,2022.2.5,Win32,58.46585594,615a0c65241737f2dece4771,64c7fed44a04f777bb1e18ce,64c801708a29f4ecb9763be2,right,1,0.75,0.1786,7,0.040135898,0.107,,,,,,186,0,186,0,1,,,,,
,,989492,001,2023-07-31_20h59.35.096,arm3_eps,2022.2.5,Win32,58.46585594,615a0c65241737f2dece4771,64c7fed44a04f777bb1e18ce,64c801708a29f4ecb9763be2,right,1,0.75,0.1786,7,0.042560064,0.0589,,,,,,187,0,187,0,1,,,,,
,,989492,001,2023-07-31_20h59.35.096,arm3_eps,2022.2.5,Win32,58.46585594,615a0c65241737f2dece4771,64c7fed44a04f777bb1e18ce,64c801708a29f4ecb9763be2,right,1,0.75,0.1786,7,0.038177632,0.0826,,,,,,188,0,188,0,1,,,,,
,,989492,001,2023-07-31_20h59.35.096,arm3_eps,2022.2.5,Win32,58.46585594,615a0c65241737f2dece4771,64c7fed44a04f777bb1e18ce,64c801708a29f4ecb9763be2,right,1,0.75,0.1786,7,0.062111038,0.18,,,,,,189,0,189,0,1,,,,,
,,989492,001,2023-07-31_20h59.35.096,arm3_eps,2022.2.5,Win32,58.46585594,615a0c65241737f2dece4771,64c7fed44a04f777bb1e18ce,64c801708a29f4ecb9763be2,right,1,0.75,0.1786,7,0.066526871,0.3804,,,,,,190,0,190,0,1,,,,,
,,989492,001,2023-07-31_20h59.35.096,arm3_eps,2022.2.5,Win32,58.46585594,615a0c65241737f2dece4771,64c7fed44a04f777bb1e18ce,64c801708a29f4ecb9763be2,down,1,0.75,0.1786,7,0,1.0844,,,,,,191,0,191,0,1,,,,,
,,989492,001,2023-07-31_20h59.35.096,arm3_eps,2022.2.5,Win32,58.46585594,615a0c65241737f2dece4771,64c7fed44a04f777bb1e18ce,64c801708a29f4ecb9763be2,right,1,0.75,0.1786,7,0.049736063,1.5501,,,,,,192,0,192,0,1,,,,,
,,989492,001,2023-07-31_20h59.35.096,arm3_eps,2022.2.5,Win32,58.46585594,615a0c65241737f2dece4771,64c7fed44a04f777bb1e18ce,64c801708a29f4ecb9763be2,right,1,0.75,0.1786,7,0.049569378,0.1792,,,,,,193,0,193,0,1,,,,,
,,989492,001,2023-07-31_20h59.35.096,arm3_eps,2022.2.5,Win32,58.46585594,615a0c65241737f2dece4771,64c7fed44a04f777bb1e18ce,64c801708a29f4ecb9763be2,right,1,0.75,0.1786,7,0.063650428,0.1352,,,,,,194,0,194,0,1,,,,,
,,989492,001,2023-07-31_20h59.35.096,arm3_eps,2022.2.5,Win32,58.46585594,615a0c65241737f2dece4771,64c7fed44a04f777bb1e18ce,64c801708a29f4ecb9763be2,right,1,0.75,0.1786,7,0.07741588,0.1561,,,,,,195,0,195,0,1,,,,,
,,989492,001,2023-07-31_20h59.35.096,arm3_eps,2022.2.5,Win32,58.46585594,615a0c65241737f2dece4771,64c7fed44a04f777bb1e18ce,64c801708a29f4ecb9763be2,right,1,0.75,0.1786,7,0.085845237,0.0685,,,,,,196,0,196,0,1,,,,,
,,989492,001,2023-07-31_20h59.35.096,arm3_eps,2022.2.5,Win32,58.46585594,615a0c65241737f2dece4771,64c7fed44a04f777bb1e18ce,64c801708a29f4ecb9763be2,right,1,0.75,0.1786,7,0.095767397,0.0145,,,,,,197,0,197,0,1,,,,,
,,989492,001,2023-07-31_20h59.35.096,arm3_eps,2022.2.5,Win32,58.46585594,615a0c65241737f2dece4771,64c7fed44a04f777bb1e18ce,64c801708a29f4ecb9763be2,right,1,0.75,0.1786,7,0.148346517,0.0862,,,,,,198,0,198,0,1,,,,,
,,989492,001,2023-07-31_20h59.35.096,arm3_eps,2022.2.5,Win32,58.46585594,615a0c65241737f2dece4771,64c7fed44a04f777bb1e18ce,64c801708a29f4ecb9763be2,right,1,0.75,0.1786,7,0.162914318,0.1657,,,,,,199,0,199,0,1,,,,,
,,989492,001,2023-07-31_20h59.35.096,arm3_eps,2022.2.5,Win32,58.46585594,615a0c65241737f2dece4771,64c7fed44a04f777bb1e18ce,64c801708a29f4ecb9763be2,right,1,0.75,0.1786,7,0.175562625,0.1359,,,,,,200,0,200,0,1,,,,,
,,989492,001,2023-07-31_20h59.35.096,arm3_eps,2022.2.5,Win32,58.46585594,615a0c65241737f2dece4771,64c7fed44a04f777bb1e18ce,64c801708a29f4ecb9763be2,right,1,0.75,0.1786,7,0.166361935,0.1509,,,,,,201,0,201,0,1,,,,,
,,989492,001,2023-07-31_20h59.35.096,arm3_eps,2022.2.5,Win32,58.46585594,615a0c65241737f2dece4771,64c7fed44a04f777bb1e18ce,64c801708a29f4ecb9763be2,right,1,0.75,0.1786,7,0.164000575,0.158,,,,,,202,0,202,0,1,,,,,
,,989492,001,2023-07-31_20h59.35.096,arm3_eps,2022.2.5,Win32,58.46585594,615a0c65241737f2dece4771,64c7fed44a04f777bb1e18ce,64c801708a29f4ecb9763be2,right,1,0.75,0.1786,7,0.159691116,0.177,,,,,,203,0,203,0,1,,,,,
,,989492,001,2023-07-31_20h59.35.096,arm3_eps,2022.2.5,Win32,58.46585594,615a0c65241737f2dece4771,64c7fed44a04f777bb1e18ce,64c801708a29f4ecb9763be2,down,1,0.75,0.1786,6,0,1.2254,,,,,,204,0,204,0,1,,,,,
,,989492,001,2023-07-31_20h59.35.096,arm3_eps,2022.2.5,Win32,58.46585594,615a0c65241737f2dece4771,64c7fed44a04f777bb1e18ce,64c801708a29f4ecb9763be2,right,1,0.75,0.1786,6,0.003134887,0.9142,,,,,,205,0,205,0,1,,,,,
,,989492,001,2023-07-31_20h59.35.096,arm3_eps,2022.2.5,Win32,58.46585594,615a0c65241737f2dece4771,64c7fed44a04f777bb1e18ce,64c801708a29f4ecb9763be2,right,1,0.75,0.1786,6,0.039399174,0.1626,,,,,,206,0,206,0,1,,,,,
,,989492,001,2023-07-31_20h59.35.096,arm3_eps,2022.2.5,Win32,58.46585594,615a0c65241737f2dece4771,64c7fed44a04f777bb1e18ce,64c801708a29f4ecb9763be2,right,1,0.75,0.1786,6,0.036252346,0.0787,,,,,,207,0,207,0,1,,,,,
,,989492,001,2023-07-31_20h59.35.096,arm3_eps,2022.2.5,Win32,58.46585594,615a0c65241737f2dece4771,64c7fed44a04f777bb1e18ce,64c801708a29f4ecb9763be2,right,1,0.75,0.1786,6,0.06151325,0.1342,,,,,,208,0,208,0,1,,,,,
,,989492,001,2023-07-31_20h59.35.096,arm3_eps,2022.2.5,Win32,58.46585594,615a0c65241737f2dece4771,64c7fed44a04f777bb1e18ce,64c801708a29f4ecb9763be2,right,1,0.75,0.1786,6,0.081204956,0.1234,,,,,,209,0,209,0,1,,,,,
,,989492,001,2023-07-31_20h59.35.096,arm3_eps,2022.2.5,Win32,58.46585594,615a0c65241737f2dece4771,64c7fed44a04f777bb1e18ce,64c801708a29f4ecb9763be2,right,1,0.75,0.1786,6,0.078355302,0.1263,,,,,,210,0,210,0,1,,,,,
,,989492,001,2023-07-31_20h59.35.096,arm3_eps,2022.2.5,Win32,58.46585594,615a0c65241737f2dece4771,64c7fed44a04f777bb1e18ce,64c801708a29f4ecb9763be2,right,1,0.75,0.1786,6,0.106595896,0.1603,,,,,,211,0,211,0,1,,,,,
,,989492,001,2023-07-31_20h59.35.096,arm3_eps,2022.2.5,Win32,58.46585594,615a0c65241737f2dece4771,64c7fed44a04f777bb1e18ce,64c801708a29f4ecb9763be2,right,1,0.75,0.1786,6,0.094180477,0.1347,,,,,,212,0,212,0,1,,,,,
,,989492,001,2023-07-31_20h59.35.096,arm3_eps,2022.2.5,Win32,58.46585594,615a0c65241737f2dece4771,64c7fed44a04f777bb1e18ce,64c801708a29f4ecb9763be2,right,1,0.75,0.1786,6,0.099914332,0.1426,,,,,,213,0,213,0,1,,,,,
,,989492,001,2023-07-31_20h59.35.096,arm3_eps,2022.2.5,Win32,58.46585594,615a0c65241737f2dece4771,64c7fed44a04f777bb1e18ce,64c801708a29f4ecb9763be2,right,1,0.75,0.1786,6,0.111196619,0.1395,,,,,,214,0,214,0,1,,,,,
,,989492,001,2023-07-31_20h59.35.096,arm3_eps,2022.2.5,Win32,58.46585594,615a0c65241737f2dece4771,64c7fed44a04f777bb1e18ce,64c801708a29f4ecb9763be2,right,1,0.75,0.1786,6,0.12560279,0.1139,,,,,,215,0,215,0,1,,,,,
,,989492,001,2023-07-31_20h59.35.096,arm3_eps,2022.2.5,Win32,58.46585594,615a0c65241737f2dece4771,64c7fed44a04f777bb1e18ce,64c801708a29f4ecb9763be2,right,1,0.75,0.1786,6,0.138473231,0.3714,,,,,,216,0,216,0,1,,,,,
,,989492,001,2023-07-31_20h59.35.096,arm3_eps,2022.2.5,Win32,58.46585594,615a0c65241737f2dece4771,64c7fed44a04f777bb1e18ce,64c801708a29f4ecb9763be2,up,1,0.75,0.1786,7,0,0.8132,,,,,,217,0,217,0,1,,,,,
,,989492,001,2023-07-31_20h59.35.096,arm3_eps,2022.2.5,Win32,58.46585594,615a0c65241737f2dece4771,64c7fed44a04f777bb1e18ce,64c801708a29f4ecb9763be2,right,1,0.75,0.1786,7,0.000107072,0.9455,,,,,,218,0,218,0,1,,,,,
,,989492,001,2023-07-31_20h59.35.096,arm3_eps,2022.2.5,Win32,58.46585594,615a0c65241737f2dece4771,64c7fed44a04f777bb1e18ce,64c801708a29f4ecb9763be2,right,1,0.75,0.1786,7,-0.006025996,0.0617,,,,,,219,0,219,0,1,,,,,
,,989492,001,2023-07-31_20h59.35.096,arm3_eps,2022.2.5,Win32,58.46585594,615a0c65241737f2dece4771,64c7fed44a04f777bb1e18ce,64c801708a29f4ecb9763be2,right,1,0.75,0.1786,7,-0.015895719,0.0125,,,,,,220,0,220,0,1,,,,,
,,989492,001,2023-07-31_20h59.35.096,arm3_eps,2022.2.5,Win32,58.46585594,615a0c65241737f2dece4771,64c7fed44a04f777bb1e18ce,64c801708a29f4ecb9763be2,right,1,0.75,0.1786,7,-0.027081903,0.0217,,,,,,221,0,221,0,1,,,,,
,,989492,001,2023-07-31_20h59.35.096,arm3_eps,2022.2.5,Win32,58.46585594,615a0c65241737f2dece4771,64c7fed44a04f777bb1e18ce,64c801708a29f4ecb9763be2,right,1,0.75,0.1786,7,0.030602541,0.0177,,,,,,222,0,222,0,1,,,,,
,,989492,001,2023-07-31_20h59.35.096,arm3_eps,2022.2.5,Win32,58.46585594,615a0c65241737f2dece4771,64c7fed44a04f777bb1e18ce,64c801708a29f4ecb9763be2,right,1,0.75,0.1786,7,0.043624772,0.1064,,,,,,223,0,223,0,1,,,,,
,,989492,001,2023-07-31_20h59.35.096,arm3_eps,2022.2.5,Win32,58.46585594,615a0c65241737f2dece4771,64c7fed44a04f777bb1e18ce,64c801708a29f4ecb9763be2,right,1,0.75,0.1786,7,0.053452819,0.129,,,,,,224,0,224,0,1,,,,,
,,989492,001,2023-07-31_20h59.35.096,arm3_eps,2022.2.5,Win32,58.46585594,615a0c65241737f2dece4771,64c7fed44a04f777bb1e18ce,64c801708a29f4ecb9763be2,right,1,0.75,0.1786,7,0.019185349,0.1126,,,,,,225,0,225,0,1,,,,,
,,989492,001,2023-07-31_20h59.35.096,arm3_eps,2022.2.5,Win32,58.46585594,615a0c65241737f2dece4771,64c7fed44a04f777bb1e18ce,64c801708a29f4ecb9763be2,right,1,0.75,0.1786,7,0.029868758,0.0767,,,,,,226,0,226,0,1,,,,,
,,989492,001,2023-07-31_20h59.35.096,arm3_eps,2022.2.5,Win32,58.46585594,615a0c65241737f2dece4771,64c7fed44a04f777bb1e18ce,64c801708a29f4ecb9763be2,right,1,0.75,0.1786,7,0.059279581,0.0716,,,,,,227,0,227,0,1,,,,,
,,989492,001,2023-07-31_20h59.35.096,arm3_eps,2022.2.5,Win32,58.46585594,615a0c65241737f2dece4771,64c7fed44a04f777bb1e18ce,64c801708a29f4ecb9763be2,right,1,0.75,0.1786,7,0.069437053,0.0654,,,,,,228,0,228,0,1,,,,,
,,989492,001,2023-07-31_20h59.35.096,arm3_eps,2022.2.5,Win32,58.46585594,615a0c65241737f2dece4771,64c7fed44a04f777bb1e18ce,64c801708a29f4ecb9763be2,right,1,0.75,0.1786,7,0.079872026,0.2167,,,,,,229,0,229,0,1,,,,,
,,989492,001,2023-07-31_20h59.35.096,arm3_eps,2022.2.5,Win32,58.46585594,615a0c65241737f2dece4771,64c7fed44a04f777bb1e18ce,64c801708a29f4ecb9763be2,up,1,0.75,0.1786,8,0,0.9537,,,,,,230,0,230,0,1,,,,,
,,989492,001,2023-07-31_20h59.35.096,arm3_eps,2022.2.5,Win32,58.46585594,615a0c65241737f2dece4771,64c7fed44a04f777bb1e18ce,64c801708a29f4ecb9763be2,right,1,0.75,0.1786,8,0.004639023,0.5674,,,,,,231,0,231,0,1,,,,,
,,989492,001,2023-07-31_20h59.35.096,arm3_eps,2022.2.5,Win32,58.46585594,615a0c65241737f2dece4771,64c7fed44a04f777bb1e18ce,64c801708a29f4ecb9763be2,right,1,0.75,0.1786,8,0.028438834,0.0144,,,,,,232,0,232,0,1,,,,,
,,989492,001,2023-07-31_20h59.35.096,arm3_eps,2022.2.5,Win32,58.46585594,615a0c65241737f2dece4771,64c7fed44a04f777bb1e18ce,64c801708a29f4ecb9763be2,right,1,0.75,0.1786,8,0.018178128,0.0617,,,,,,233,0,233,0,1,,,,,
,,989492,001,2023-07-31_20h59.35.096,arm3_eps,2022.2.5,Win32,58.46585594,615a0c65241737f2dece4771,64c7fed44a04f777bb1e18ce,64c801708a29f4ecb9763be2,right,1,0.75,0.1786,8,0.016410492,0.0386,,,,,,234,0,234,0,1,,,,,
,,989492,001,2023-07-31_20h59.35.096,arm3_eps,2022.2.5,Win32,58.46585594,615a0c65241737f2dece4771,64c7fed44a04f777bb1e18ce,64c801708a29f4ecb9763be2,right,1,0.75,0.1786,8,0.029770459,0.1494,,,,,,235,0,235,0,1,,,,,
,,989492,001,2023-07-31_20h59.35.096,arm3_eps,2022.2.5,Win32,58.46585594,615a0c65241737f2dece4771,64c7fed44a04f777bb1e18ce,64c801708a29f4ecb9763be2,right,1,0.75,0.1786,8,0.03886632,0.045,,,,,,236,0,236,0,1,,,,,
,,989492,001,2023-07-31_20h59.35.096,arm3_eps,2022.2.5,Win32,58.46585594,615a0c65241737f2dece4771,64c7fed44a04f777bb1e18ce,64c801708a29f4ecb9763be2,right,1,0.75,0.1786,8,0.026661896,0.0924,,,,,,237,0,237,0,1,,,,,
,,989492,001,2023-07-31_20h59.35.096,arm3_eps,2022.2.5,Win32,58.46585594,615a0c65241737f2dece4771,64c7fed44a04f777bb1e18ce,64c801708a29f4ecb9763be2,right,1,0.75,0.1786,8,0.050385851,0.0797,,,,,,238,0,238,0,1,,,,,
,,989492,001,2023-07-31_20h59.35.096,arm3_eps,2022.2.5,Win32,58.46585594,615a0c65241737f2dece4771,64c7fed44a04f777bb1e18ce,64c801708a29f4ecb9763be2,right,1,0.75,0.1786,8,0.083592249,0.2434,,,,,,239,0,239,0,1,,,,,
,,989492,001,2023-07-31_20h59.35.096,arm3_eps,2022.2.5,Win32,58.46585594,615a0c65241737f2dece4771,64c7fed44a04f777bb1e18ce,64c801708a29f4ecb9763be2,right,1,0.75,0.1786,8,0.101727464,0.0164,,,,,,240,0,240,0,1,,,,,
,,989492,001,2023-07-31_20h59.35.096,arm3_eps,2022.2.5,Win32,58.46585594,615a0c65241737f2dece4771,64c7fed44a04f777bb1e18ce,64c801708a29f4ecb9763be2,right,1,0.75,0.1786,8,0.101580777,0.0113,,,,,,241,0,241,0,1,,,,,
,,989492,001,2023-07-31_20h59.35.096,arm3_eps,2022.2.5,Win32,58.46585594,615a0c65241737f2dece4771,64c7fed44a04f777bb1e18ce,64c801708a29f4ecb9763be2,right,1,0.75,0.1786,8,0.131909551,0.2046,,,,,,242,0,242,0,1,,,,,
,,989492,001,2023-07-31_20h59.35.096,arm3_eps,2022.2.5,Win32,58.46585594,615a0c65241737f2dece4771,64c7fed44a04f777bb1e18ce,64c801708a29f4ecb9763be2,up,1,0.75,0.1786,9,0,1.0652,,,,,,243,0,243,0,1,,,,,
,,989492,001,2023-07-31_20h59.35.096,arm3_eps,2022.2.5,Win32,58.46585594,615a0c65241737f2dece4771,64c7fed44a04f777bb1e18ce,64c801708a29f4ecb9763be2,right,1,0.75,0.1786,9,0.018764089,1.0665,,,,,,244,0,244,0,1,,,,,
,,989492,001,2023-07-31_20h59.35.096,arm3_eps,2022.2.5,Win32,58.46585594,615a0c65241737f2dece4771,64c7fed44a04f777bb1e18ce,64c801708a29f4ecb9763be2,right,1,0.75,0.1786,9,0.010472865,0.2281,,,,,,245,0,245,0,1,,,,,
,,989492,001,2023-07-31_20h59.35.096,arm3_eps,2022.2.5,Win32,58.46585594,615a0c65241737f2dece4771,64c7fed44a04f777bb1e18ce,64c801708a29f4ecb9763be2,right,1,0.75,0.1786,9,0.039174461,0.1393,,,,,,246,0,246,0,1,,,,,
,,989492,001,2023-07-31_20h59.35.096,arm3_eps,2022.2.5,Win32,58.46585594,615a0c65241737f2dece4771,64c7fed44a04f777bb1e18ce,64c801708a29f4ecb9763be2,right,1,0.75,0.1786,9,0.062703192,0.1285,,,,,,247,0,247,0,1,,,,,
,,989492,001,2023-07-31_20h59.35.096,arm3_eps,2022.2.5,Win32,58.46585594,615a0c65241737f2dece4771,64c7fed44a04f777bb1e18ce,64c801708a29f4ecb9763be2,right,1,0.75,0.1786,9,0.078210442,0.1429,,,,,,248,0,248,0,1,,,,,
,,989492,001,2023-07-31_20h59.35.096,arm3_eps,2022.2.5,Win32,58.46585594,615a0c65241737f2dece4771,64c7fed44a04f777bb1e18ce,64c801708a29f4ecb9763be2,right,1,0.75,0.1786,9,0.120884244,0.1786,,,,,,249,0,249,0,1,,,,,
,,989492,001,2023-07-31_20h59.35.096,arm3_eps,2022.2.5,Win32,58.46585594,615a0c65241737f2dece4771,64c7fed44a04f777bb1e18ce,64c801708a29f4ecb9763be2,right,1,0.75,0.1786,9,0.121027652,0.1386,,,,,,250,0,250,0,1,,,,,
,,989492,001,2023-07-31_20h59.35.096,arm3_eps,2022.2.5,Win32,58.46585594,615a0c65241737f2dece4771,64c7fed44a04f777bb1e18ce,64c801708a29f4ecb9763be2,right,1,0.75,0.1786,9,0.098989232,0.1451,,,,,,251,0,251,0,1,,,,,
,,989492,001,2023-07-31_20h59.35.096,arm3_eps,2022.2.5,Win32,58.46585594,615a0c65241737f2dece4771,64c7fed44a04f777bb1e18ce,64c801708a29f4ecb9763be2,right,1,0.75,0.1786,9,0.122221238,0.1529,,,,,,252,0,252,0,1,,,,,
